time,ax,ay,az,atotal
230.3711267,-0.67,-0.83,0.58,1.21
230.3875637,-0.69,-0.76,0.72,1.25
230.3891778,-0.58,-0.67,0.82,1.2
230.3899388,-0.42,-0.55,0.93,1.15
230.3905299,-0.18,-0.38,1.03,1.11
230.3908896,-0.09,-0.26,1.05,1.08
230.3911579,-0.19,-0.25,1.07,1.11
230.391408,-0.22,-0.18,1.02,1.05
230.3916507,-0.23,-0.07,0.97,0.99
230.3918889,-0.29,-0.04,1.02,1.06
230.3921857,-0.33,-0.06,1.2,1.24
230.3924198,-0.22,0.02,1.37,1.38
230.393374,-0.1,0.07,1.32,1.32
230.3936057,0.08,0.03,1.07,1.07
230.3939829,0.37,-0.17,0.8,0.89
230.3943799,0.52,-0.6,0.65,1.02
230.394702,0.79,-0.92,0.71,1.4
230.3949299,1.25,-1.11,1.01,1.95
230.3951597,1.57,-1.33,1.28,2.42
230.3953888,1.69,-1.49,1.36,2.63
230.3956058,1.78,-1.41,1.34,2.63
230.395834,1.89,-1.17,1.27,2.56
230.4007249,1.99,-0.94,1.06,2.44
230.4009547,2.02,-0.67,0.81,2.27
230.4011748,2.11,-0.34,0.7,2.24
230.4015238,2.35,0.02,0.47,2.39
230.4020038,2.61,0.33,0.16,2.63
230.4022958,2.65,0.6,0.2,2.72
230.4025087,2.61,0.86,0.69,2.83
230.4028168,2.32,1.08,1.29,2.86
230.4032848,1.85,1.2,1.79,2.84
230.4035728,1.09,1.25,1.92,2.53
230.4044569,0.26,1.22,1.62,2.04
230.4046729,-0.17,1.08,1.15,1.58
230.4049249,-0.25,1.03,0.67,1.25
230.4051368,-0.18,1.04,0.3,1.09
230.4053488,-0.23,0.97,0.08,1
230.4055889,-0.31,0.89,-0.01,0.94
230.4060588,-0.38,0.81,0.03,0.89
230.4062798,-0.48,0.7,-0.02,0.84
230.4064918,-0.72,0.52,-0.14,0.89
230.4067039,-1.13,0.48,-0.03,1.22
230.4075689,-1.61,0.44,0.24,1.68
230.4077797,-1.95,0.33,0.54,2.05
230.4081678,-2,0.14,0.88,2.18
230.4086246,-1.79,-0.25,1.22,2.18
230.4091077,-1.52,-0.7,1.39,2.17
230.4094319,-1.26,-1.12,1.3,2.12
230.4096427,-1.12,-1.46,0.99,2.08
230.409853,-1.2,-1.68,0.45,2.11
230.4100628,-1.46,-1.84,-0.18,2.35
230.4103899,-1.8,-1.9,-0.82,2.74
230.4121218,-2.28,-1.86,-1.36,3.24
230.412395,-2.62,-1.62,-1.76,3.54
230.4126129,-2.73,-1.44,-2.1,3.73
230.4128237,-2.45,-1.38,-2.29,3.62
230.4130368,-1.96,-1.48,-2.27,3.34
230.4173849,-1.3,-1.64,-2.12,2.97
230.4175887,-0.76,-1.73,-1.9,2.67
230.4177899,-0.51,-1.72,-1.66,2.44
230.4181647,-0.46,-1.51,-1.43,2.12
230.4185598,-0.61,-1.21,-1.24,1.83
230.4197659,-0.74,-0.96,-1.08,1.62
230.4199648,-0.89,-0.87,-1.07,1.64
230.4201627,-1,-0.85,-1.18,1.76
230.4203408,-1.11,-0.85,-1.34,1.93
230.4205389,-1.35,-0.84,-1.52,2.19
230.4207368,-1.59,-0.7,-1.63,2.38
230.4209328,-1.78,-0.44,-1.61,2.44
230.4211969,-1.86,-0.18,-1.46,2.37
230.421536,-1.93,0.07,-1.16,2.25
230.4218738,-2.09,0.15,-0.9,2.28
230.4229469,-2.22,0.14,-0.64,2.31
230.4232929,-2.26,0.08,-0.56,2.32
230.4235668,-2.17,0,-0.6,2.25
230.4237609,-2.13,-0.12,-0.84,2.29
230.4239507,-2.27,-0.21,-1.29,2.61
230.4241369,-2.22,-0.12,-1.7,2.79
230.4243207,-2.34,-0.07,-2.15,3.17
230.4245048,-2.38,-0.16,-2.41,3.39
230.4246948,-1.89,-0.15,-2.42,3.07
230.4248819,-1.21,-0.09,-2.13,2.45
230.4256177,-0.61,-0.08,-1.75,1.85
230.4258027,-0.24,0.13,-1.36,1.38
230.4259698,-0.24,0.46,-0.96,1.09
230.4261527,-0.35,0.77,-0.39,0.93
230.4263368,-0.25,1.09,0.21,1.13
230.4265409,-0.24,1.19,0.54,1.32
230.4268389,-0.09,0.99,0.63,1.17
230.427156,0.2,0.63,0.76,1
230.4273839,0.61,0.27,0.83,1.06
230.4275599,1.07,0.14,0.84,1.36
230.4282548,1.29,0.16,0.95,1.61
230.4284348,1.01,0.13,1.12,1.51
230.4286108,0.42,0.05,1.42,1.48
230.4287858,-0.2,0.26,1.9,1.92
230.4289598,-0.69,0.61,2.21,2.39
230.4291387,-1.12,0.89,2.19,2.61
230.4293208,-1.42,1.14,1.92,2.64
230.429493,-1.5,1.27,1.51,2.47
230.4296718,-1.42,1.19,0.98,2.09
230.4319677,-1.19,0.99,0.33,1.58
230.4326808,-0.86,0.6,-0.2,1.06
230.4329057,-0.5,0.12,-0.64,0.82
230.4331758,-0.1,-0.16,-0.95,0.96
230.4334469,0.12,-0.22,-1.15,1.17
230.4337158,-0.1,-0.19,-1.21,1.22
230.4339848,-0.64,-0.09,-0.99,1.18
230.4342546,-1.13,0.16,-0.62,1.29
230.4345238,-1.53,0.32,-0.36,1.6
230.4347939,-1.83,0.24,-0.22,1.85
230.4350629,-1.9,0.04,-0.12,1.9
230.4361079,-1.53,-0.07,-0.36,1.57
230.4363778,-0.97,-0.06,-0.92,1.33
230.4366469,-0.44,-0.03,-1.42,1.48
230.4369159,0.19,-0.05,-1.71,1.72
230.4371309,0.79,-0.25,-1.53,1.73
230.4373028,1.4,-0.45,-0.57,1.57
230.4374728,1.66,-0.55,0.34,1.78
230.4376228,1.49,-0.55,1.01,1.88
230.437789,1.22,-0.5,1.12,1.72
230.4379549,1.08,-0.32,0.82,1.39
230.4389729,0.76,-0.15,0.41,0.87
230.4392409,0.56,-0.2,0.21,0.63
230.4395099,0.65,-0.49,0.06,0.81
230.4397769,0.89,-0.85,-0.2,1.24
230.4400487,1.44,-1.03,-0.33,1.8
230.4403167,1.98,-0.87,-0.39,2.19
230.4405618,2.2,-0.62,-0.47,2.33
230.4408059,2.21,-0.42,-0.22,2.26
230.4410498,2.07,-0.31,0.16,2.09
230.4412689,1.88,-0.31,0.34,1.93
230.4420989,1.69,-0.26,0.3,1.73
230.4422717,1.58,-0.12,0.14,1.59
230.4424419,1.51,0,0.24,1.52
230.4426117,1.76,0.08,0.62,1.86
230.4427848,2.07,0.33,0.32,2.12
230.4429498,2.05,0.16,0.5,2.11
230.4431157,2.08,-0.25,0.55,2.16
230.4432917,1.91,-0.45,0.58,2.04
230.4435358,1.53,-0.47,0.8,1.78
230.4437547,1.29,-0.47,0.97,1.68
230.4447198,0.98,-0.43,0.95,1.43
230.4449649,0.73,-0.29,0.97,1.24
230.4452078,0.44,-0.08,1.02,1.11
230.4454508,0.31,0.15,1.03,1.08
230.4456949,0.29,0.21,1.14,1.19
230.4459128,0.17,0.21,1.25,1.27
230.4461308,0.18,0.21,1.32,1.34
230.4463587,0.27,0.24,1.37,1.41
230.448874,0.31,0.32,1.35,1.42
230.4491098,0.24,0.43,1.15,1.25
230.4499969,-0.08,0.4,0.82,0.91
230.4502258,-0.61,0.41,0.43,0.85
230.4504528,-0.9,0.73,0.13,1.16
230.4506798,-0.68,1.26,0.1,1.43
230.4509029,-0.4,1.4,0.19,1.46
230.4511378,-0.16,1.23,0.16,1.25
230.4513679,0.21,1.29,-0.07,1.3
230.4515929,0.05,1.48,-0.26,1.5
230.4518199,0.26,1.33,-0.82,1.58
230.4520488,0.24,1.16,-1.22,1.7
230.4528389,-0.27,1.34,-1.01,1.69
230.4530108,-1.05,1.23,-0.62,1.73
230.4531898,-1.98,0.95,-0.06,2.19
230.453393,-2.86,0.79,0.67,3.04
230.4536018,-3.31,0.38,1.27,3.56
230.453826,-3.18,-0.29,1,3.34
230.4539938,-2.91,-1.17,1.11,3.32
230.4541607,-1.76,-1.18,0.68,2.22
230.4543278,-0.98,-1.35,0.13,1.67
230.454495,-0.63,-1.66,-0.39,1.81
230.4552526,-0.36,-1.68,-0.69,1.85
230.4554639,0.09,-1.49,-0.81,1.69
230.4556746,0.32,-1.31,-0.77,1.55
230.4558849,0.27,-1.43,-1.01,1.77
230.4560938,0.85,-2.04,-2.16,3.09
230.4562898,1.41,-2.05,-2.42,3.47
230.4564867,1.35,-0.64,-2.2,2.65
230.4566889,-0.17,0.68,-1.59,1.73
230.4568849,-1.65,1.28,-1.41,2.51
230.4570818,-2.55,1.04,-1.3,3.04
230.4578009,-2.37,0.47,-1.04,2.63
230.4579709,-1.74,-0.28,-0.47,1.82
230.4581518,-0.96,-0.71,-0.32,1.23
230.4583468,-0.16,-1.04,-0.37,1.11
230.4585419,0.38,-1.3,-0.47,1.43
230.4587379,0.17,-1.43,-0.43,1.5
230.4589338,-0.53,-1.56,-0.37,1.68
230.4591298,-0.97,-1.42,-0.27,1.74
230.4593258,-0.86,-1.05,-0.23,1.37
230.4595218,-0.43,-0.73,-0.44,0.95
230.4602978,-0.21,-0.03,-0.68,0.71
230.460495,0.08,0.33,-1.06,1.11
230.460691,-0.15,0.91,-0.72,1.17
230.460887,-0.38,1.19,-0.11,1.25
230.4610808,-0.41,0.98,0.39,1.13
230.4612768,-0.22,0.91,0.79,1.22
230.4614718,0.01,1.16,1.26,1.71
230.4616659,0.09,1.48,1.46,2.08
230.4618597,0.32,1.93,1.54,2.48
230.4620578,0.66,2.37,1.62,2.94
230.4628377,0.96,2.53,1.5,3.09
230.4630108,1.21,2.33,1.24,2.9
230.4650769,1.35,2.25,0.94,2.78
230.4652677,1.43,2.28,0.67,2.77
230.4654527,1.59,2.41,0.78,2.99
230.4656358,1.67,2.51,0.97,3.16
230.4658189,1.57,2.35,1,2.99
230.4660008,1.46,1.87,0.86,2.52
230.466177,1.36,1.44,0.62,2.07
230.4663599,1.21,1.23,0.58,1.82
230.4670939,1.09,1.14,0.55,1.67
230.467268,0.94,1.12,0.61,1.58
230.4674559,0.49,1.1,0.85,1.47
230.4676299,-0.11,1.06,1.4,1.75
230.467804,-0.66,1.14,2.02,2.41
230.4679809,-1.14,1.31,2.27,2.85
230.468154,-1.53,1.38,2.04,2.89
230.4683309,-1.75,1.2,1.35,2.51
230.4685068,-1.82,1,0.42,2.11
230.4686809,-1.68,0.85,-0.48,1.94
230.469368,-1.38,0.71,-1.2,1.96
230.4695418,-0.97,0.39,-1.37,1.72
230.4697158,-0.46,0,-1.11,1.2
230.4698908,0,-0.43,-0.66,0.78
230.4701848,0.33,-0.97,-0.06,1.02
230.4704018,0.59,-1.6,0.69,1.83
230.470614,0.79,-2.33,1.07,2.68
230.4707959,0.89,-2.86,1.14,3.2
230.4709759,0.78,-3.13,1.01,3.38
230.4711599,0.68,-3.27,0.7,3.41
230.4718719,0.54,-3.24,0.36,3.3
230.4720497,0.33,-3.05,-0.07,3.06
230.4722228,0.1,-2.76,-0.61,2.82
230.4724107,-0.14,-2.44,-1.13,2.69
230.4725788,-0.38,-2.17,-1.55,2.69
230.4727619,-0.64,-1.73,-1.59,2.43
230.4729378,-0.72,-1.21,-1.34,1.94
230.4731119,-0.55,-0.74,-1.18,1.49
230.47329,-0.19,-0.29,-0.89,0.95
230.4734607,0.25,-0.06,-0.64,0.68
230.4741349,0.4,-0.16,-0.61,0.74
230.4743068,0.57,-0.36,-0.48,0.82
230.4744818,0.71,-0.58,-0.5,1.04
230.4746559,0.69,-0.8,-0.53,1.18
230.4748268,0.59,-1,-0.58,1.29
230.4749968,0.35,-1.19,-0.67,1.4
230.4751668,0.18,-1.22,-0.75,1.44
230.4753368,0.21,-0.91,-0.61,1.11
230.4755068,0.36,-0.72,-0.59,0.99
230.4756808,0.63,-0.44,-0.69,1.03
230.4763508,0.8,-0.02,-0.58,0.98
230.4765208,0.89,0.18,-0.46,1.01
230.4766898,0.91,0.42,-0.33,1.05
230.4768438,0.91,0.62,-0.14,1.11
230.4770129,0.94,0.65,0.05,1.14
230.4771819,0.97,0.49,0.22,1.1
230.4773588,1,0.42,0.49,1.19
230.4775348,0.98,0.54,0.8,1.37
230.4777038,1.04,0.65,0.99,1.57
230.4778767,1.11,0.79,1.04,1.71
230.478539,1.1,0.96,1.14,1.85
230.4787078,1.12,1.09,1.29,2.02
230.4788918,1.07,0.98,1.3,1.94
230.4790597,0.94,0.77,1.11,1.64
230.4792278,0.74,0.6,1,1.38
230.4793959,0.39,0.43,1.02,1.17
230.4795637,0.01,0.34,1.21,1.25
230.4797368,-0.24,0.28,1.26,1.31
230.4818959,-0.44,0.27,1.06,1.17
230.4820757,-0.71,0.56,0.94,1.3
230.4827828,-0.87,0.86,0.76,1.44
230.4829578,-0.64,1.08,0.67,1.42
230.4831309,-0.23,1.18,0.87,1.48
230.4833007,0.15,0.96,1.2,1.54
230.4834709,0.21,0.6,1.4,1.53
230.4836397,0.05,0.35,1.39,1.43
230.4838018,-0.32,0.55,1.29,1.43
230.4839768,-0.66,1.19,1.01,1.69
230.4841459,-0.58,1.58,0.52,1.76
230.4843209,-0.47,1.51,0.12,1.58
230.4849868,-0.4,1.28,-0.18,1.35
230.4851568,-0.15,1.13,-0.43,1.21
230.4853258,0.22,1,-0.59,1.18
230.4855068,0.37,0.66,-0.65,0.99
230.4856768,0.11,-0.09,-0.57,0.58
230.4858458,-0.15,-0.84,-0.47,0.97
230.4860268,-0.25,-1.4,-0.31,1.45
230.4861958,-0.42,-1.8,-0.23,1.86
230.4863648,-0.49,-2.07,-0.41,2.16
230.4865339,-0.43,-2.24,-0.69,2.38
230.487196,-0.24,-2.31,-0.99,2.52
230.4873667,-0.21,-2.18,-1.22,2.5
230.487536,-0.36,-1.89,-1.32,2.33
230.4877138,-0.66,-1.52,-1.45,2.2
230.487886,-0.89,-1.12,-1.69,2.21
230.4880557,-0.98,-0.63,-1.81,2.15
230.488225,-1.23,-0.23,-1.66,2.07
230.4883938,-1.52,0.13,-1.21,1.94
230.4885638,-1.58,0.41,-0.82,1.82
230.4887319,-1.42,0.53,-0.52,1.6
230.489409,-1.24,0.41,-0.3,1.34
230.4895477,-1.27,0.41,-0.3,1.36
230.4897289,-1.21,0.07,-0.21,1.23
230.4898839,-1.21,-0.34,-0.06,1.25
230.4900608,-1.12,-0.77,0.21,1.37
230.4902298,-1.03,-0.98,0.57,1.53
230.4904037,-1.06,-1.03,1.01,1.79
230.4905548,-1.2,-1.03,1.48,2.16
230.4907358,-1.33,-1.08,1.88,2.54
230.4909029,-1.3,-1.2,2.02,2.68
230.4915578,-1.2,-1.3,1.94,2.62
230.4917307,-1.08,-1.37,1.64,2.39
230.4919078,-0.87,-1.36,1.14,1.97
230.4920859,-0.63,-1.15,0.59,1.43
230.4922538,-0.43,-0.89,0.1,0.99
230.492435,-0.29,-0.7,-0.35,0.83
230.4926038,-0.28,-0.52,-0.85,1.03
230.4927797,-0.37,-0.36,-1.41,1.5
230.4929628,-0.63,-0.11,-1.74,1.85
230.4931307,-0.94,0,-1.72,1.96
230.493794,-1.02,-0.05,-1.37,1.7
230.4939659,-1,-0.01,-0.94,1.37
230.4941359,-0.86,0.07,-0.75,1.14
230.4943047,-0.62,0.13,-0.73,0.96
230.4944758,-0.51,0.22,-0.78,0.95
230.4946437,-0.64,0.57,-0.82,1.18
230.4948108,-0.9,0.98,-0.7,1.5
230.4949949,-1.16,1.19,-0.4,1.7
230.495163,-1.12,1.12,-0.09,1.58
230.4953308,-0.75,1.04,0.06,1.28
230.4959888,-0.44,1.12,0.19,1.21
230.4961567,-0.28,1.38,0.37,1.45
230.4963279,-0.17,1.62,0.62,1.74
230.498312,-0.15,1.73,1.06,2.03
230.4984879,-0.2,1.63,1.4,2.15
230.498652,-0.19,1.46,1.57,2.15
230.4988217,-0.06,1.41,1.65,2.17
230.498992,0.2,1.49,1.58,2.18
230.4991608,0.38,1.65,1.45,2.22
230.4993289,0.01,1.48,1.26,1.94
230.5000179,-0.25,1.21,1.32,1.8
230.5001879,-0.42,1.05,1.48,1.86
230.5003557,-0.45,1.01,1.68,2.01
230.5005269,-0.35,1.13,1.77,2.12
230.5006948,-0.21,1.33,1.57,2.06
230.5008638,-0.11,1.58,1.15,1.95
230.5010338,-0.16,1.56,0.55,1.66
230.5012028,-0.31,1.28,-0.19,1.33
230.5013719,-0.46,0.86,-0.9,1.32
230.5015397,-0.61,0.37,-1.46,1.62
230.5022168,-0.82,-0.25,-1.63,1.84
230.5023868,-0.71,-0.91,-1.38,1.79
230.5025558,-0.44,-1.52,-0.77,1.75
230.5027289,-0.09,-2,0.1,2
230.5028996,0.38,-2.24,1.01,2.48
230.5031567,0.88,-2.28,1.47,2.85
230.5033269,0.91,-2.48,1.59,3.08
230.5035157,0.58,-2.55,1.24,2.89
230.5036879,0.2,-2.32,0.68,2.42
230.50386,-0.25,-1.81,0.26,1.84
230.5045388,-0.77,-1.37,0.09,1.57
230.5047078,-1.22,-1.14,0.05,1.67
230.5048769,-1.49,-1.22,0.15,1.93
230.505044,-1.28,-1.36,0.3,1.89
230.5052118,-0.94,-1.4,0.62,1.79
230.5053797,-0.62,-1.34,0.86,1.7
230.5055299,-0.38,-1.32,0.86,1.62
230.5056999,-0.27,-1.27,0.59,1.42
230.5058517,-0.27,-1.26,0.12,1.29
230.5060198,-0.37,-1.34,-0.39,1.44
230.506701,-0.52,-1.24,-0.73,1.53
230.5068698,-0.79,-1.07,-0.95,1.63
230.5070379,-1.08,-0.95,-0.97,1.73
230.5072069,-1.22,-0.96,-0.87,1.77
230.5073678,-1.19,-1.07,-0.76,1.77
230.507566,-0.9,-0.96,-0.55,1.42
230.507741,-0.51,-0.67,-0.4,0.93
230.5079098,-0.17,-0.4,-0.52,0.67
230.5080779,-0.03,-0.17,-0.81,0.82
230.5082469,-0.15,0.04,-1.05,1.06
230.5088887,-0.48,0.2,-1.05,1.17
230.5090489,-0.9,0.2,-0.99,1.35
230.5092187,-1.23,0.04,-0.94,1.54
230.5093868,-1.46,-0.07,-0.88,1.7
230.5095549,-1.55,-0.04,-0.73,1.71
230.5097268,-1.66,0.16,-0.51,1.74
230.5098948,-1.73,0.36,-0.18,1.77
230.5100636,-1.65,0.42,0.06,1.7
230.5102308,-1.39,0.37,0.13,1.44
230.5103998,-1.05,0.43,0.11,1.13
230.511076,-0.78,0.67,0.26,1.06
230.5112429,-0.7,0.79,0.61,1.21
230.5114107,-0.67,0.56,0.72,1.13
230.5115788,-0.66,0.3,0.61,0.94
230.5117297,-0.71,0.3,0.36,0.85
230.5119069,-0.81,0.51,0.15,0.96
230.5120778,-0.86,0.73,-0.11,1.13
230.5122447,-0.87,0.79,-0.5,1.27
230.512414,-0.86,0.83,-0.9,1.49
230.51261,-0.89,0.88,-1.27,1.78
230.5151238,-0.91,0.98,-1.4,1.93
230.5153008,-0.96,1.08,-1.19,1.87
230.515461,-1,1.08,-0.61,1.59
230.515646,-0.94,0.89,0.1,1.29
230.5158148,-0.8,0.6,0.69,1.21
230.5159848,-0.49,0.25,1.05,1.18
230.5161538,-0.12,0.01,1.24,1.24
230.5163207,0.13,0.02,1.4,1.4
230.5165088,0.12,0.36,1.75,1.79
230.5166769,-0.06,0.93,1.88,2.09
230.517345,-0.06,1.25,1.58,2.01
230.5175478,-0.01,1.45,1.16,1.85
230.5177228,0.07,1.6,0.65,1.72
230.5178928,0.3,1.52,0.05,1.55
230.5180607,0.74,1.33,-0.25,1.54
230.5182288,1.2,1.11,-0.08,1.63
230.5183978,1.58,0.58,0.31,1.71
230.5185657,1.55,-0.29,0.9,1.81
230.5187449,1.09,-1.33,1.54,2.3
230.5189238,0.73,-2.09,1.93,2.93
230.5195799,0.53,-2.52,1.96,3.23
230.5197477,0.24,-2.82,1.51,3.2
230.5199168,-0.11,-2.91,0.75,3
230.5200849,-0.44,-2.73,-0.04,2.76
230.5202527,-0.56,-2.35,-0.75,2.52
230.5204239,-0.41,-1.61,-1.21,2.05
230.5205939,-0.06,-0.83,-1.55,1.75
230.5207629,0.39,-0.39,-1.75,1.83
230.5209308,0.82,-0.14,-1.73,1.91
230.5210989,1.24,-0.09,-1.51,1.95
230.52176,1.58,-0.16,-1.18,1.97
230.5219278,1.82,-0.29,-0.76,1.99
230.5220969,1.98,-0.24,-0.33,2.02
230.5222659,2.01,-0.18,0.03,2.01
230.5224328,1.89,-0.27,0.18,1.91
230.5226007,1.75,-0.47,0.09,1.81
230.5227757,1.57,-0.67,-0.07,1.7
230.5229588,1.4,-0.77,-0.2,1.61
230.5231299,1.24,-0.82,-0.24,1.5
230.5233006,1.07,-0.9,-0.15,1.4
230.5239677,0.79,-0.94,0.02,1.22
230.5241358,0.57,-0.83,0.26,1.03
230.5243039,0.56,-0.41,0.45,0.82
230.5244718,0.68,0.23,0.6,0.93
230.5246387,0.91,0.72,0.57,1.29
230.5248058,1.16,0.94,0.33,1.52
230.5249758,1.28,1.02,0.03,1.63
230.5251439,1.19,0.96,-0.27,1.55
230.5253129,1.1,0.9,-0.5,1.5
230.5254807,1,1.04,-0.65,1.58
230.5261397,0.96,1.24,-0.62,1.68
230.5263188,1.04,1.41,-0.46,1.81
230.5264707,1.21,1.41,-0.26,1.87
230.5266457,1.42,1.4,-0.11,1.99
230.5267959,1.54,1.4,0.05,2.08
230.5269659,1.49,1.38,0.04,2.03
230.5271339,1.25,1.36,-0.06,1.84
230.5273018,0.99,1.27,-0.16,1.61
230.5274708,0.79,1.17,-0.09,1.41
230.5276728,0.69,1.07,0.21,1.29
230.5283349,0.56,0.94,0.66,1.27
230.5285029,0.45,0.8,1.09,1.42
230.5286539,0.45,0.63,1.4,1.59
230.528821,0.67,0.5,1.55,1.76
230.5289927,0.89,0.44,1.57,1.85
230.5291729,1.03,0.4,1.56,1.91
230.5293427,0.91,0.3,1.43,1.72
230.529511,0.62,0.21,1.23,1.39
230.5296817,0.22,0.42,1.09,1.18
230.5315688,0.02,0.9,0.95,1.3
230.5322437,0.01,1.24,0.62,1.38
230.5324168,-0.07,1.29,0.18,1.3
230.5325859,-0.2,1.1,-0.3,1.15
230.5327559,-0.24,0.87,-0.51,1.03
230.5329337,-0.2,0.62,-0.48,0.8
230.5331118,0.13,0.03,-0.35,0.37
230.5332837,0.64,-0.76,-0.04,0.99
230.5334518,1.07,-1.53,0.41,1.91
230.5336208,1.26,-2.15,0.77,2.6
230.5337887,1.27,-2.5,0.9,2.94
230.5344589,1.14,-2.66,0.78,2.99
230.5346458,0.85,-2.8,0.48,2.96
230.5348158,0.45,-2.77,0.24,2.81
230.5349998,-0.07,-2.49,0.01,2.49
230.5351729,-0.61,-1.95,-0.28,2.06
230.5353417,-1.02,-1.53,-0.31,1.86
230.5355098,-1.11,-1.28,-0.3,1.72
230.5356798,-0.97,-1.11,-0.51,1.55
230.5358498,-0.8,-0.84,-0.84,1.43
230.5361328,-0.54,-0.68,-1.09,1.39
230.53684,-0.06,-0.72,-1.28,1.46
230.5370097,0.97,-0.47,-1.48,1.83
230.5371828,1.56,0.07,-1.03,1.87
230.5373518,1.15,0.03,-0.58,1.28
230.537519,0.33,-0.37,-0.34,0.6
230.5377107,-0.22,-0.67,-0.19,0.73
230.537879,-0.29,-0.74,-0.04,0.79
230.5380349,-0.29,-0.81,0.14,0.87
230.5381858,-0.29,-0.83,0.17,0.89
230.5383539,-0.24,-0.84,0.06,0.87
230.5390077,-0.22,-0.82,-0.04,0.84
230.5391827,-0.29,-0.72,-0.11,0.78
230.5393558,-0.19,-0.43,-0.23,0.52
230.5395389,0.06,0,-0.36,0.36
230.5397098,0.27,0.38,-0.41,0.62
230.5398769,0.37,0.63,-0.39,0.82
230.5400448,0.4,0.79,-0.38,0.96
230.5402117,0.37,0.93,-0.36,1.06
230.54038,0.32,0.96,-0.25,1.04
230.5405459,0.25,0.77,0.01,0.8
230.5412028,0.13,0.52,0.36,0.64
230.5413699,0.08,0.41,0.6,0.73
230.5415378,0.16,0.35,0.69,0.79
230.5417047,0.21,0.42,0.66,0.81
230.5418718,0.06,0.54,0.67,0.86
230.5420408,-0.14,0.58,0.71,0.92
230.5422068,-0.3,0.56,0.76,0.99
230.5423737,-0.42,0.54,0.78,1.03
230.542542,-0.49,0.56,0.75,1.05
230.5427248,-0.51,0.6,0.59,0.98
230.5434008,-0.56,0.72,0.51,1.04
230.5435767,-0.6,0.82,0.56,1.16
230.5437527,-0.38,0.77,0.61,1.05
230.543921,-0.17,0.78,0.89,1.19
230.5440969,-0.36,1.12,1.27,1.73
230.5442648,-0.72,1.58,1.36,2.2
230.5444379,-0.64,1.63,0.91,1.97
230.5446048,-0.46,1.53,0.19,1.6
230.5447717,-0.23,1.6,-0.6,1.72
230.5449479,0.07,1.7,-1.22,2.09
230.5456038,0.37,1.91,-1.51,2.46
230.5457718,0.69,1.87,-1.46,2.47
230.5459456,1.14,1.39,-1.02,2.06
230.5461159,1.46,0.67,-0.27,1.62
230.5462847,1.47,-0.14,0.38,1.52
230.5483658,1.13,-0.84,0.73,1.58
230.5485277,0.56,-1.43,0.73,1.7
230.5486999,-0.03,-1.99,0.41,2.03
230.5488708,-0.62,-2.42,-0.01,2.49
230.5490408,-1.22,-2.53,-0.42,2.84
230.5497108,-1.94,-2.32,-0.78,3.12
230.5498819,-2.61,-1.79,-1.07,3.34
230.5500517,-3.15,-1.05,-1.34,3.58
230.550221,-3.39,-0.37,-1.51,3.72
230.5503898,-3.1,-0.01,-1.57,3.47
230.5505588,-2.45,0.11,-1.45,2.84
230.5507278,-1.7,0.16,-1.08,2.02
230.5508966,-0.99,0.21,-0.48,1.12
230.5510828,-0.38,0.25,0.23,0.5
230.55125,0.17,0,0.77,0.78
230.5519068,0.51,-0.5,1,1.22
230.5520759,0.54,-0.91,1.02,1.46
230.5522447,0.37,-1.18,0.89,1.52
230.5524287,0.18,-1.37,0.68,1.54
230.5526128,-0.01,-1.46,0.39,1.51
230.5527809,-0.22,-1.44,0.1,1.46
230.5529568,-0.39,-1.35,-0.11,1.4
230.5531249,-0.48,-1.19,-0.19,1.29
230.5533068,-0.43,-0.96,-0.15,1.06
230.5534778,-0.29,-0.68,-0.08,0.74
230.554142,-0.2,-0.39,0,0.43
230.5543098,-0.1,-0.14,0.1,0.19
230.5544767,0.05,0.05,0.16,0.17
230.5546458,0.11,0.21,0.13,0.27
230.5548158,0.04,0.35,0.03,0.35
230.5549839,0.03,0.49,-0.05,0.49
230.5551519,0.01,0.68,-0.14,0.69
230.5553207,-0.04,0.91,-0.16,0.92
230.5554888,0.03,1.17,-0.06,1.17
230.5556827,0.2,1.42,0.17,1.44
230.556355,0.39,1.53,0.31,1.6
230.5565219,0.56,1.54,0.35,1.67
230.5566969,0.75,1.53,0.46,1.76
230.5568647,0.9,1.49,0.73,1.88
230.5570359,1.04,1.42,1.14,2.09
230.5572138,1.11,1.26,1.59,2.31
230.5573897,1.09,1.08,1.93,2.46
230.5575638,0.93,0.93,2.25,2.6
230.5577488,0.66,0.9,2.53,2.76
230.5579157,0.35,1.07,2.62,2.85
230.5585699,0.24,1.15,2.33,2.6
230.5587368,0.5,0.87,1.68,1.95
230.5589037,0.73,0.57,0.9,1.29
230.5590708,0.64,0.6,0.24,0.9
230.5592468,0.38,0.78,-0.17,0.88
230.5594149,0.25,0.75,-0.35,0.86
230.5595818,0.36,0.26,-0.27,0.51
230.5597599,0.69,-0.49,0.02,0.84
230.559927,1,-1.12,0.43,1.56
230.5600939,1.21,-1.6,0.8,2.15
230.5607519,1.22,-1.88,1.02,2.46
230.5609329,1.02,-2.02,1.01,2.47
230.5610998,0.84,-2.15,0.78,2.43
230.5612729,0.8,-2.18,0.45,2.36
230.56144,0.78,-2.04,0.07,2.18
230.5616078,0.77,-1.74,-0.35,1.93
230.5617747,0.72,-1.37,-0.72,1.7
230.5619419,0.63,-0.9,-0.94,1.44
230.5621109,0.74,-0.45,-0.99,1.31
230.5622787,1.11,-0.15,-0.78,1.36
230.562953,1.68,-0.07,-0.25,1.69
230.5648837,2.24,-0.13,0.34,2.26
230.5650587,2.6,-0.35,0.76,2.73
230.5652289,2.77,-0.57,1.02,3
230.5653987,2.71,-0.76,1.07,3.01
230.5655668,2.5,-0.97,0.89,2.82
230.5657349,2.16,-1.12,0.61,2.5
230.5658858,1.83,-1.12,0.36,2.17
230.566072,1.57,-0.95,0.33,1.86
230.5662398,1.5,-0.68,0.36,1.68
230.5668938,1.59,-0.44,0.35,1.68
230.5670667,1.66,-0.31,0.29,1.71
230.5672359,1.59,-0.22,0.13,1.61
230.5674038,1.4,-0.15,-0.1,1.41
230.5675948,1.2,-0.13,-0.38,1.26
230.5677748,0.99,-0.09,-0.59,1.15
230.5679448,0.87,0.11,-0.6,1.06
230.5681179,0.98,0.35,-0.37,1.1
230.568285,1.24,0.48,-0.12,1.33
230.5684528,1.52,0.56,0.08,1.62
230.5691779,1.65,0.67,0.28,1.8
230.5693288,1.69,0.67,0.36,1.85
230.5695128,1.62,0.53,0.32,1.73
230.569695,1.42,0.4,0.19,1.48
230.5698788,1.25,0.3,0.11,1.29
230.5700459,1.08,0.27,0.02,1.11
230.5702138,0.96,0.23,-0.04,0.98
230.570385,0.83,0.22,-0.07,0.86
230.5705378,0.69,0.28,-0.07,0.74
230.5707078,0.5,0.35,-0.08,0.61
230.5713668,0.26,0.43,-0.05,0.5
230.5715349,0.01,0.44,-0.01,0.44
230.5717039,-0.23,0.35,-0.02,0.41
230.5718708,-0.32,0.18,-0.08,0.37
230.5720398,-0.28,0.02,-0.09,0.29
230.5722079,-0.45,0.09,0.01,0.45
230.5723748,-0.98,0.59,0.22,1.16
230.5725427,-1.16,0.97,0.26,1.53
230.572722,-0.95,0.92,0.09,1.32
230.5729008,-0.89,0.82,-0.16,1.22
230.5736079,-1.01,0.92,-0.47,1.44
230.5737758,-0.92,0.88,-0.88,1.54
230.5739439,-0.48,0.56,-1.29,1.48
230.574111,0.12,0.07,-1.5,1.5
230.5742788,0.68,-0.42,-1.38,1.59
230.5744488,1.04,-0.8,-1.02,1.66
230.5746179,1.35,-1.16,-0.58,1.87
230.5747848,1.6,-1.58,-0.28,2.26
230.5749516,1.67,-2,-0.15,2.6
230.5751188,1.39,-2.34,-0.14,2.72
230.5757768,0.79,-2.52,-0.25,2.65
230.5759287,0.12,-2.52,-0.4,2.55
230.5760968,-0.52,-2.34,-0.57,2.46
230.5762658,-0.93,-2.11,-0.71,2.41
230.5764327,-1.14,-1.71,-0.8,2.2
230.5765998,-1.32,-1.12,-0.81,1.91
230.5767708,-1.37,-0.56,-0.79,1.67
230.5769389,-1.13,-0.11,-0.72,1.34
230.577107,-0.62,0.12,-0.63,0.89
230.5772777,0.03,0.17,-0.45,0.48
230.5779567,0.62,0.12,-0.33,0.71
230.578125,1.01,0.09,-0.26,1.04
230.5782769,1.11,0.09,-0.21,1.13
230.5784597,0.97,0.08,-0.14,0.98
230.5786419,0.73,0,-0.1,0.73
230.5787928,0.48,-0.17,-0.1,0.51
230.5789647,0.33,-0.27,-0.06,0.43
230.5791507,0.29,-0.42,-0.04,0.51
230.57932,0.35,-0.62,-0.02,0.71
230.5794709,0.35,-0.77,-0.05,0.84
230.5819149,0.18,-0.83,-0.17,0.86
230.5820899,-0.13,-0.76,-0.35,0.84
230.5822768,-0.55,-0.61,-0.56,0.99
230.5824459,-0.84,-0.47,-0.69,1.18
230.5826159,-1.05,-0.3,-0.68,1.28
230.5827847,-1.16,0,-0.43,1.23
230.582953,-0.99,0.27,-0.13,1.03
230.5831268,-0.63,0.44,0.13,0.77
230.5832949,-0.39,0.63,0.4,0.84
230.5834658,-0.28,0.76,0.64,1.03
230.5841548,-0.21,0.83,0.84,1.19
230.5843239,-0.16,0.85,0.9,1.24
230.5844748,-0.16,0.84,0.86,1.21
230.5846438,-0.22,0.95,0.84,1.28
230.5848107,-0.2,1.14,0.86,1.44
230.5849779,-0.08,1.33,0.83,1.56
230.585146,0.11,1.45,0.74,1.63
230.5853119,0.32,1.56,0.67,1.72
230.5854888,0.44,1.68,0.72,1.88
230.5856667,0.46,1.73,0.83,1.97
230.5863228,0.38,1.71,0.88,1.96
230.5864758,0.21,1.58,0.88,1.82
230.5866458,-0.05,1.4,0.92,1.67
230.5868149,-0.29,1.27,0.96,1.61
230.5869858,-0.39,1.16,1.02,1.59
230.587142,-0.42,1.06,1.02,1.52
230.5873089,-0.46,0.99,0.97,1.46
230.5874758,-0.45,0.91,0.91,1.36
230.5876439,-0.41,0.85,0.89,1.29
230.5878098,-0.4,0.82,0.91,1.28
230.5885098,-0.43,0.9,0.95,1.37
230.5886769,-0.45,1.05,0.97,1.49
230.5888457,-0.17,0.89,0.86,1.24
230.5890129,0.03,0.62,0.7,0.93
230.5891809,-0.07,0.6,0.48,0.77
230.5893478,-0.2,0.52,0.2,0.59
230.5895147,-0.33,0.35,-0.14,0.5
230.5896978,-0.45,0.08,-0.49,0.67
230.5898647,-0.36,-0.37,-0.8,0.95
230.5900328,-0.11,-0.93,-0.91,1.3
230.5906909,0.16,-1.33,-0.83,1.57
230.5908599,0.49,-1.7,-0.71,1.9
230.5910277,0.82,-2.07,-0.61,2.3
230.5912049,0.99,-2.23,-0.55,2.5
230.5913558,0.91,-2.17,-0.55,2.41
230.5915236,0.83,-2.08,-0.69,2.34
230.5916986,0.9,-2,-0.95,2.39
230.5918679,1.01,-1.87,-1.17,2.42
230.5920348,0.95,-1.5,-1.16,2.12
230.5922017,0.88,-1.06,-0.99,1.69
230.5928879,0.81,-0.68,-0.92,1.4
230.5930548,0.82,-0.37,-0.88,1.25
230.5932298,1.06,-0.2,-0.89,1.39
230.5934167,1.42,-0.12,-0.88,1.67
230.5935869,1.84,0,-0.68,1.96
230.5937579,2.12,0.04,-0.45,2.16
230.593925,2.25,-0.07,-0.32,2.27
230.5940938,2.23,-0.29,-0.22,2.25
230.5942607,2.06,-0.41,-0.19,2.1
230.5944309,1.78,-0.52,-0.22,1.86
230.5950837,1.52,-0.54,-0.23,1.62
230.5952508,1.19,-0.41,-0.14,1.26
230.5954189,0.9,-0.2,0.04,0.92
230.5955868,0.76,-0.11,0.17,0.78
230.5957549,0.77,-0.04,0.29,0.82
230.595922,0.81,0.08,0.43,0.92
230.5960958,0.8,0.27,0.55,1
230.5962629,0.73,0.46,0.62,1.06
230.5981448,0.55,0.71,0.66,1.11
230.5983179,0.57,0.74,0.7,1.16
230.5989778,0.62,0.73,0.83,1.26
230.5991468,0.68,0.69,0.98,1.37
230.5993159,0.63,0.71,1.2,1.53
230.599484,0.58,0.69,1.34,1.61
230.5996509,0.54,0.61,1.28,1.51
230.5998178,0.47,0.6,1.11,1.34
230.5999858,0.27,0.65,0.92,1.15
230.600153,0.08,0.67,0.68,0.95
230.6003208,-0.03,0.57,0.44,0.72
230.6004887,-0.22,0.52,0.24,0.61
230.6011519,-0.44,0.51,0.12,0.68
230.6013198,-0.7,0.49,0.04,0.85
230.6014879,-0.88,0.43,0.02,0.97
230.601656,-1.03,0.34,-0.03,1.08
230.6018248,-1.12,0.24,-0.06,1.14
230.6019959,-1.17,0.16,-0.07,1.18
230.6022549,-1.18,0.1,-0.05,1.18
230.6024237,-1.09,0.01,-0.08,1.09
230.602592,-1.05,-0.05,-0.14,1.06
230.6027598,-1.29,0.2,0,1.3
230.6034539,0.54,0.66,3.04,3.15
230.6036239,-0.75,0.91,0.29,1.21
230.6037948,-0.03,1.03,0.95,1.4
230.6039629,0.11,1.04,0.35,1.1
230.6041307,-0.1,1.25,-0.29,1.28
230.6042998,-0.31,1.55,-0.87,1.8
230.6044669,-0.15,1.36,-1.24,1.84
230.6046348,0.42,0.61,-1.27,1.47
230.6047938,0.88,-0.3,-1.14,1.47
230.6049619,1.01,-1.17,-0.88,1.77
230.605619,0.93,-1.9,-0.44,2.16
230.6057868,0.71,-2.44,0.03,2.54
230.6059546,0.31,-2.75,0.42,2.79
230.606123,-0.15,-2.9,0.52,2.95
230.6063027,-0.54,-3,0.31,3.06
230.6064649,-0.81,-2.95,-0.18,3.06
230.6066358,-1.01,-2.57,-0.68,2.84
230.6068039,-1.14,-1.88,-0.94,2.39
230.6069789,-1.19,-1.12,-1.05,1.94
230.6071467,-1.01,-0.38,-1.01,1.47
230.6078067,-0.5,0.13,-0.87,1.01
230.6080158,0.24,0.36,-0.78,0.89
230.6081877,0.83,0.53,-0.76,1.24
230.6083608,1.09,0.71,-0.7,1.47
230.6085219,1.03,0.79,-0.69,1.47
230.6086879,0.82,0.63,-1.6,1.9
230.6088548,0.36,0.24,-1.32,1.38
230.6090217,0.05,-0.44,-0.85,0.95
230.60919,-0.15,-0.92,-0.66,1.14
230.609365,-0.2,-1.3,-0.29,1.34
230.6100259,-0.4,-1.56,-0.24,1.62
230.610209,-0.7,-1.61,-0.29,1.77
230.6103778,-0.94,-1.48,-0.13,1.75
230.6105537,-1.14,-1.29,0.14,1.72
230.6107218,-1.18,-1,0.38,1.59
230.6108899,-0.95,-0.61,0.49,1.23
230.6110587,-0.58,-0.16,0.43,0.73
230.6112258,-0.2,0.33,0.23,0.44
230.611393,0.12,0.83,-0.05,0.84
230.6115608,0.49,1.26,-0.32,1.38
230.6122139,0.84,1.7,-0.45,1.94
230.6123819,1.01,2.1,-0.29,2.34
230.6125488,1.03,2.31,-0.02,2.52
230.6127157,0.89,2.35,0.32,2.53
230.6128817,0.79,2.34,0.67,2.55
230.6130648,0.8,2.33,0.95,2.64
230.6150458,0.8,2.33,1.2,2.74
230.6152208,0.79,2.37,1.33,2.83
230.6153908,0.85,2.47,1.35,2.94
230.6155519,0.78,2.53,1.29,2.94
230.6162179,0.6,2.56,1.26,2.91
230.6163859,0.46,2.51,1.51,2.96
230.6165528,0.32,2.35,1.92,3.05
230.6167207,0.25,1.99,2.28,3.03
230.6168869,0.2,1.65,2.5,3
230.6170559,0.26,1.37,2.53,2.88
230.6172218,0.44,1.03,2.46,2.7
230.6173887,0.42,0.73,2.27,2.42
230.6175568,0.21,0.55,2.03,2.11
230.6177258,-0.15,0.49,1.82,1.89
230.6183839,-0.53,0.64,1.54,1.74
230.6185348,-0.53,0.73,1.18,1.48
230.6187029,-0.5,0.71,0.82,1.19
230.6188707,-0.66,0.67,0.47,1.05
230.6190379,-0.86,0.37,0.1,0.94
230.6191998,-0.94,-0.07,-0.11,0.94
230.6193678,-0.56,-0.56,-0.31,0.85
230.6195359,1.51,-0.25,-1.01,1.83
230.6197028,2.2,0.02,-0.14,2.2
230.6198697,1.94,-1.1,0.32,2.25
230.6205218,1.43,-2.74,0.33,3.1
230.6206899,0.37,-3.52,0.25,3.54
230.6208587,-0.54,-3.15,0.37,3.21
230.621027,-0.63,-2.62,0.33,2.71
230.6212029,-0.49,-2.82,-0.09,2.86
230.6213708,-0.48,-3,-0.47,3.07
230.6215389,-0.54,-2.48,-0.56,2.59
230.6217058,-1.05,-1.63,-1.58,2.5
230.6218729,-1.52,-1.44,-2.06,2.93
230.6220417,-1.15,-1.38,-1.91,2.62
230.622705,0.56,-0.71,-2.22,2.39
230.6228738,1.68,-0.22,-1.92,2.56
230.6230419,1.39,-0.42,-1.74,2.26
230.62321,0.19,-1.18,-1.29,1.75
230.6233788,-0.76,-1.21,-0.43,1.49
230.6235499,-0.66,-0.81,0.23,1.06
230.6237009,0.34,-0.77,0.23,0.87
230.623868,1.04,-0.78,-0.18,1.31
230.6240349,0.81,-0.84,-0.59,1.3
230.6242049,0.32,-0.85,-0.95,1.31
230.6248569,0.08,-0.87,-1.04,1.35
230.6250248,-0.04,-1.01,-0.93,1.37
230.6251929,-0.07,-0.94,-0.69,1.16
230.625361,-0.23,-0.75,-0.35,0.85
230.6255288,-0.49,-0.73,0.02,0.87
230.6256967,-0.65,-0.98,0.2,1.19
230.6258478,-0.53,-0.98,0.11,1.11
230.6260157,-0.23,-0.36,0,0.42
230.6261828,0.02,0.32,-0.15,0.35
230.6263499,0.43,0.82,-0.4,1
230.6270068,0.69,1.11,-0.58,1.42
230.6271708,0.56,1.17,-0.6,1.42
230.6273389,0.42,1.14,-0.59,1.35
230.6275048,0.31,0.99,-0.44,1.12
230.6276817,0.21,0.71,-0.13,0.75
230.6278489,0.23,0.54,0.16,0.6
230.6280317,0.28,0.42,0.42,0.65
230.6281819,0.32,0.42,0.65,0.83
230.6283517,0.24,0.48,0.87,1.02
230.6285267,0.13,0.63,1.11,1.28
230.6291869,-0.04,0.74,1.3,1.49
230.6293619,-0.3,0.77,1.71,1.89
230.629529,-0.28,0.73,1.62,1.79
230.6296997,-0.43,0.69,1.37,1.59
230.6315749,-0.58,0.68,1.39,1.65
230.6317487,-0.5,0.49,1.45,1.61
230.6319189,-0.44,0.23,1.52,1.59
230.6320899,-0.4,0.05,1.38,1.43
230.6322637,-0.47,-0.11,1.25,1.33
230.6324368,-0.49,0,1.27,1.36
230.6331067,-0.41,0.78,1.2,1.48
230.633276,-0.33,1.73,0.9,1.97
230.6334288,-0.46,1.73,0.37,1.82
230.6336048,-0.61,1.34,-0.16,1.48
230.6337757,-0.52,1.33,-0.32,1.46
230.633945,-0.59,0.99,-0.38,1.21
230.6341128,-0.53,0.51,-0.41,0.84
230.6342838,-0.35,-0.1,-0.33,0.49
230.6344538,-0.11,-0.97,-0.24,1
230.634666,-0.06,-1.76,-0.05,1.76
230.6353738,-0.23,-2.22,0.2,2.24
230.6355479,-0.41,-2.28,0.09,2.31
230.6357298,-0.78,-2.34,-0.1,2.46
230.6358979,-0.98,-2.08,-0.42,2.33
230.6360538,-0.98,-1.81,-0.89,2.24
230.6362219,-0.86,-1.65,-1.35,2.29
230.6363897,-0.66,-1.42,-1.61,2.24
230.6365578,-0.59,-1.03,-1.7,2.07
230.6367259,-0.72,-0.53,-1.55,1.78
230.6368999,-0.94,-0.08,-1.4,1.68
230.6375546,-1.07,0.18,-1.26,1.66
230.6377277,-0.97,0.17,-1.1,1.47
230.6378958,-0.6,-0.11,-0.95,1.12
230.6380639,-0.27,-0.44,-0.84,0.98
230.6382318,-0.12,-0.61,-0.68,0.92
230.6383998,-0.04,-0.66,-0.33,0.73
230.6385679,0.02,-0.81,-0.17,0.82
230.6387348,-0.06,-1.06,-0.11,1.06
230.638907,-0.14,-1.28,-0.01,1.28
230.6390748,-0.08,-1.38,-0.14,1.38
230.6397457,0,-1.41,-0.35,1.45
230.6399217,0.01,-1.4,-0.59,1.51
230.6400728,0.01,-1.27,-0.73,1.46
230.6402407,-0.08,-1.04,-0.77,1.29
230.6404288,-0.09,-0.86,-0.72,1.12
230.6405959,0.04,-0.67,-0.53,0.85
230.6407669,0.14,-0.43,-0.35,0.57
230.6409359,0.24,-0.19,-0.23,0.38
230.6411068,0.31,0.06,-0.14,0.34
230.6412759,0.38,0.39,-0.03,0.54
230.6419339,0.42,0.62,-0.05,0.75
230.6420937,0.24,0.69,-0.18,0.75
230.642262,-0.08,0.77,-0.13,0.78
230.6424298,-0.13,0.99,0.18,1.01
230.642581,-0.13,1.12,0.45,1.21
230.6427479,-0.06,1.2,0.51,1.3
230.6429148,0.17,1.28,0.57,1.41
230.6430478,0.46,1.28,0.57,1.47
230.6432257,0.61,1.31,0.53,1.53
230.6433928,0.52,1.33,0.51,1.51
230.6440609,0.33,1.38,0.75,1.6
230.6442289,0.1,1.36,1.11,1.75
230.6443968,0.03,1.31,1.65,2.1
230.6445637,0.02,1.22,2.11,2.43
230.6447299,0,1.32,2.39,2.73
230.6448979,-0.02,1.37,2.26,2.64
230.6450739,-0.07,1.33,1.77,2.21
230.6452498,-0.06,1.36,1.19,1.8
230.6454158,-0.1,1.32,0.67,1.48
230.6455827,-0.23,1.26,0.3,1.31
230.6462417,-0.36,1.12,-0.02,1.17
230.6482458,-0.5,0.96,-0.18,1.09
230.6484208,-0.51,0.94,-0.13,1.07
230.6485908,-0.44,1.18,0.09,1.26
230.6487598,-0.23,1.39,0.31,1.44
230.6489277,-0.01,1.46,0.38,1.5
230.6490958,0.04,1.51,0.33,1.54
230.6492729,-0.04,1.41,0.19,1.42
230.6494448,-0.12,1.19,0.04,1.19
230.6496177,0.02,0.88,-0.06,0.88
230.650291,0.35,0.41,-0.08,0.54
230.6504679,0.64,-0.24,-0.05,0.68
230.6506457,0.72,-0.89,0.12,1.15
230.6508179,0.64,-1.45,0.35,1.62
230.6509857,0.38,-2,0.45,2.08
230.6511598,0.14,-2.3,0.51,2.36
230.6513267,0,-2.32,0.43,2.35
230.6514978,-0.01,-2.29,0.23,2.3
230.6516647,0.04,-2.18,0,2.18
230.6518338,0.13,-2.02,-0.21,2.03
230.6524959,0.12,-1.69,-0.44,1.75
230.6526728,0.14,-1.27,-0.56,1.39
230.6528449,0.29,-0.9,-0.63,1.13
230.6530128,0.32,-0.67,-0.77,1.06
230.653193,0.26,-0.69,-1,1.24
230.6533608,0.23,-0.8,-1.18,1.44
230.6535387,0.14,-0.84,-1.27,1.52
230.6536927,0.17,-0.87,-1.27,1.54
230.6538448,0.17,-0.98,-1.03,1.43
230.6540127,-0.01,-1.22,-0.85,1.48
230.6546729,-0.13,-1.46,-0.69,1.62
230.6548419,-0.3,-1.58,-0.43,1.66
230.6550097,-0.42,-1.5,-0.14,1.56
230.6551769,-0.43,-1.28,0.07,1.35
230.6553438,-0.31,-0.99,0.15,1.04
230.6555128,-0.03,-0.71,0.08,0.71
230.6556797,0.15,-0.56,-0.13,0.59
230.6558509,0.2,-0.4,-0.37,0.58
230.6560187,0.04,-0.22,-0.42,0.47
230.6561918,-0.1,-0.05,-0.31,0.32
230.6568499,-0.17,0.16,-0.09,0.25
230.6570177,-0.2,0.37,0.15,0.44
230.6571858,-0.15,0.49,0.29,0.58
230.6573529,0.02,0.61,0.31,0.68
230.6575038,0.12,0.69,0.31,0.76
230.6576777,0.1,0.74,0.35,0.82
230.6578538,0.01,0.75,0.41,0.85
230.6580198,-0.08,0.72,0.63,0.96
230.6581988,-0.1,0.67,0.97,1.18
230.6583667,-0.06,0.59,1.18,1.32
230.6590209,0,0.52,1.25,1.35
230.6591887,0.08,0.53,1.22,1.33
230.6593559,0.12,0.56,1.03,1.17
230.6594887,0.12,0.56,0.71,0.91
230.6596568,-0.02,0.53,0.55,0.76
230.659832,-0.31,0.57,0.6,0.88
230.6600008,-0.59,0.69,0.69,1.14
230.6601498,-0.8,0.7,0.69,1.26
230.6603179,-0.93,0.56,0.58,1.23
230.6604848,-0.91,0.39,0.52,1.11
230.6611428,-0.81,0.25,0.43,0.95
230.6613178,-0.74,0.06,0.25,0.78
230.6614728,-0.74,-0.07,0.07,0.74
230.6616406,-0.82,-0.09,-0.01,0.82
230.6618078,-0.94,-0.08,-0.02,0.94
230.661984,-1.06,0.05,0.17,1.07
230.6621509,-1.18,0.6,0.42,1.38
230.6623178,-1.29,1.11,0.41,1.75
230.6624846,-1.37,1.12,0.08,1.77
230.6626518,-1.35,0.88,-0.4,1.66
230.6649928,-1.06,0.76,-0.89,1.57
230.6651707,-0.76,0.9,-1.17,1.66
230.6653409,-0.56,1.01,-1.15,1.62
230.6655097,-0.51,0.74,-0.94,1.3
230.665679,-0.63,0.14,-0.58,0.86
230.6658549,-0.68,-0.49,-0.4,0.92
230.6660268,-0.65,-0.93,-0.27,1.16
230.6661959,-0.81,-1.29,-0.09,1.52
230.6663647,-1.01,-1.55,-0.05,1.85
230.666533,-1.09,-1.62,-0.06,1.95
230.6672029,-1.08,-1.57,-0.13,1.91
230.6673737,-0.91,-1.47,-0.36,1.76
230.6675248,-0.76,-1.47,-0.73,1.8
230.6677079,-0.73,-1.46,-1.05,1.94
230.6678789,-0.81,-1.35,-1.24,2
230.6680479,-1.07,-1.08,-1.11,1.88
230.6682177,-1.3,-0.63,-0.87,1.68
230.6683848,-1.47,-0.41,-0.77,1.7
230.6685519,-1.55,-0.38,-0.78,1.77
230.6686978,-1.55,-0.43,-0.76,1.77
230.6694708,-1.47,-0.5,-0.57,1.65
230.6696558,-1.35,-0.7,-0.4,1.57
230.6698327,-1.32,-0.87,-0.27,1.6
230.6700087,-1.21,-1,-0.03,1.57
230.6701827,-0.99,-1.16,0.17,1.53
230.6703548,-0.83,-1.33,0.29,1.59
230.6705258,-0.76,-1.37,0.33,1.6
230.6706977,-0.62,-1.25,0.31,1.42
230.6708679,-0.49,-1.07,0.19,1.19
230.6710389,-0.53,-0.88,-0.09,1.03
230.6717558,-0.63,-0.65,-0.22,0.93
230.6719289,-0.71,-0.42,-0.21,0.85
230.6720998,-0.74,-0.3,-0.06,0.8
230.6722708,-0.76,-0.25,0.19,0.82
230.672442,-0.77,-0.23,0.63,1.02
230.6726127,-0.7,-0.21,0.97,1.21
230.6727839,-0.71,-0.2,1.12,1.34
230.6729369,-0.79,-0.1,1.12,1.37
230.673121,-0.97,0.05,1.13,1.49
230.6733248,-1.29,0.19,1.09,1.69
230.674017,-1.53,0.26,0.98,1.83
230.6741939,-1.6,0.29,0.76,1.79
230.6743679,-1.37,0.38,0.54,1.52
230.674541,-1.01,0.48,0.44,1.2
230.6747108,-0.68,0.53,0.43,0.96
230.674881,-0.47,0.52,0.53,0.87
230.6750507,-0.36,0.39,0.77,0.93
230.6752288,-0.29,0.31,1.22,1.29
230.6753988,-0.34,0.29,1.68,1.73
230.6755698,-0.48,0.17,1.76,1.83
230.6762648,-0.49,0.19,1.57,1.65
230.6764359,-0.36,0.34,1.27,1.36
230.6766047,-0.3,0.51,0.87,1.05
230.6767759,-0.23,0.7,0.52,0.9
230.6769447,-0.25,0.79,0.23,0.85
230.6771138,-0.33,0.73,0.12,0.81
230.6772828,-0.27,0.53,0.09,0.6
230.6774528,-0.2,0.37,-0.06,0.42
230.6776237,-0.28,0.09,-0.11,0.31
230.6777928,-0.25,-0.08,0.13,0.29
230.6784608,-0.02,0.25,0.44,0.5
230.6786318,-0.11,0.83,0.67,1.07
230.6788008,-0.43,1.42,1.03,1.8
230.6789718,-0.72,1.69,1.31,2.25
230.679143,-0.77,1.5,1.1,2.01
230.6793149,-0.49,1.11,0.5,1.31
230.6794848,-0.21,0.74,-0.19,0.79
230.679657,-0.08,0.54,-0.71,0.89
230.6817229,0.1,0.42,-0.77,0.88
230.6819057,0.55,-0.4,-0.69,0.96
230.68257,0.77,-1.63,-0.66,1.91
230.6827478,0.87,-2.15,-0.37,2.34
230.6829188,0.78,-2.25,0.06,2.38
230.6830897,0.45,-2.24,0.34,2.3
230.6832609,-0.03,-2.04,0.39,2.07
230.6834419,-0.31,-1.76,0.07,1.78
230.6836178,-0.22,-1.57,-0.45,1.64
230.6837897,0,-1.35,-0.96,1.65
230.6839788,0.23,-0.86,-1.31,1.58
230.6841559,0.44,-0.19,-1.42,1.49
230.6848829,0.64,0.37,-1.41,1.59
230.6850557,0.75,0.64,-1.3,1.63
230.6852298,0.66,0.58,-1.09,1.4
230.6854029,0.48,0.3,-0.86,1.02
230.6855779,0.37,-0.03,-0.66,0.75
230.6857519,0.2,-0.35,-0.55,0.68
230.6864898,-0.48,-0.61,-0.89,1.18
230.6866617,-0.54,-0.88,-0.66,1.22
230.686832,-0.62,-1.1,-0.43,1.33
230.6870017,-0.72,-1.12,-0.32,1.36
230.687665,-0.77,-1.14,-0.2,1.39
230.6878357,-0.75,-1.26,-0.29,1.49
230.6880069,-0.67,-1.41,-0.54,1.65
230.6881769,-0.7,-1.45,-0.89,1.83
230.6883469,-0.94,-1.35,-1.14,2
230.6885157,-1.3,-1.04,-0.95,1.91
230.6886868,-1.62,-0.79,-0.53,1.87
230.6888578,-1.76,-0.65,-0.22,1.88
230.6890287,-1.74,-0.62,-0.1,1.84
230.6891999,-1.7,-0.52,0.09,1.78
230.6898508,-1.61,-0.42,0.29,1.68
230.6900277,-1.38,-0.38,0.37,1.47
230.6901989,-1,-0.34,0.52,1.17
230.6903839,-0.52,-0.29,0.96,1.12
230.6905558,-0.18,-0.42,1.27,1.34
230.6907277,-0.03,-0.65,1.28,1.43
230.6908979,-0.04,-0.92,1.04,1.38
230.6910708,-0.21,-1.07,0.69,1.29
230.6912417,-0.5,-1.02,0.33,1.18
230.691412,-0.8,-0.95,-0.03,1.24
230.6921089,-1,-0.93,-0.4,1.42
230.6922808,-1.03,-0.75,-0.59,1.4
230.692452,-1.04,-0.59,-0.57,1.32
230.6926227,-0.86,-0.45,-0.47,1.07
230.6927977,-0.62,-0.29,-0.26,0.73
230.6929708,-0.43,-0.18,-0.14,0.48
230.693141,-0.36,-0.05,-0.04,0.36
230.6933148,-0.45,-0.02,-0.04,0.45
230.6943159,-0.67,0.01,-0.08,0.67
230.7040849,-0.94,0.03,-0.07,0.94
230.7155809,-1.14,0.05,-0.16,1.15
230.724196,-1.2,0.09,-0.16,1.21
230.7343178,-1.08,0.14,-0.06,1.09
230.7443008,-0.87,0.23,0.1,0.9
230.7543948,-0.7,0.38,0.32,0.85
230.7644408,-0.57,0.45,0.46,0.85
230.7744958,-0.58,0.51,0.5,0.92
230.7846498,-0.59,0.52,0.45,0.9
230.7945957,-0.6,0.55,0.33,0.87
230.8046627,-0.58,0.64,0.31,0.91
230.816381,-0.56,0.74,0.43,1.02
230.8248267,-0.48,0.84,0.71,1.2
230.8348868,-0.26,0.84,1.12,1.42
230.8449149,-0.08,0.7,1.28,1.46
230.8550057,0.13,0.59,1.33,1.46
230.8651028,0.23,0.58,1.37,1.5
230.8751378,0.21,0.56,1.29,1.42
230.8856487,0.08,0.54,1.11,1.23
230.8958807,-0.12,0.61,0.97,1.15
230.9059877,-0.27,0.6,0.83,1.05
230.9228497,-0.22,0.56,0.75,0.96
230.92555,-0.01,0.45,0.62,0.76
230.9354477,0.19,0.4,0.5,0.66
230.9453528,0.3,0.45,0.57,0.78
230.9554467,0.22,0.57,0.69,0.92
230.9653008,0.07,0.55,0.55,0.78
230.9755008,-0.05,0.4,0.21,0.45
230.9852889,-0.19,0.34,-0.09,0.39
230.9954288,-0.42,0.34,-0.36,0.64
231.0055108,-0.53,0.32,-0.64,0.89
231.0157537,-0.45,0.2,-0.84,0.97
231.0254779,-0.25,0.08,-0.97,1
231.0358768,0.05,-0.1,-1.01,1.01
231.0458279,0.47,-0.35,-0.94,1.1
231.0557969,0.85,-0.55,-0.78,1.27
231.0657377,1.08,-0.76,-0.66,1.47
231.0761147,1.14,-1.01,-0.66,1.65
231.0856688,0.97,-1.17,-0.68,1.66
231.0958238,0.69,-1.18,-0.65,1.51
231.1059437,0.34,-1.14,-0.59,1.32
231.1159139,0.04,-1.05,-0.52,1.17
231.1259747,-0.07,-1.07,-0.6,1.22
231.1368279,0,-1.14,-0.8,1.39
231.1464748,0.01,-1.01,-0.93,1.37
231.1571417,-0.03,-0.7,-0.99,1.21
231.166986,-0.07,-0.31,-0.97,1.02
231.177619,-0.07,0.02,-0.92,0.92
231.1872287,0.13,0.12,-1.03,1.04
231.1977248,0.36,-0.03,-1.26,1.31
231.207716,0.49,-0.2,-1.49,1.58
231.2213707,0.58,-0.29,-1.52,1.65
231.2269769,0.63,-0.26,-1.35,1.51
231.2379937,0.62,-0.21,-1.13,1.3
231.2499928,0.65,-0.21,-0.86,1.09
231.258564,0.59,-0.2,-0.57,0.84
231.2687328,0.48,-0.14,-0.24,0.55
231.278471,0.4,-0.16,-0.03,0.43
231.2875888,0.31,-0.27,0.04,0.41
231.2989078,0.27,-0.38,-0.06,0.47
231.3088217,0.29,-0.33,-0.03,0.44
231.3290997,0.25,-0.11,0.11,0.29
231.3299098,0.28,0.1,0.23,0.37
231.3380489,0.47,0.23,0.34,0.62
231.3494468,0.72,0.33,0.33,0.85
231.3585339,0.87,0.4,0.27,0.99
231.3685169,0.82,0.44,0.15,0.94
231.3789859,0.62,0.51,0.07,0.8
231.3892078,0.4,0.56,-0.01,0.68
231.4009628,0.26,0.51,-0.1,0.58
231.4090257,0.18,0.46,-0.08,0.5
231.4312859,0.14,0.44,-0.06,0.46
231.4329867,0.1,0.48,0,0.49
231.4384248,0.07,0.55,0.12,0.56
231.4521558,0.12,0.57,0.27,0.64
231.4589019,0.14,0.54,0.36,0.66
231.4689579,0.13,0.46,0.41,0.62
231.4794059,0.09,0.4,0.46,0.61
231.489028,-0.01,0.36,0.6,0.69
231.4997718,-0.15,0.35,0.78,0.86
231.5096908,-0.29,0.31,0.94,1.03
231.5298657,-0.4,0.19,1.01,1.1
231.5319929,-0.7,0.16,0.99,1.22
231.5388279,-1.25,0.45,0.93,1.62
231.5488248,-1.64,0.77,0.75,1.96
231.5593178,-1.47,0.73,0.45,1.7
231.5694628,-1.05,0.58,0.3,1.23
231.5801518,-0.68,0.59,0.37,0.97
231.5899529,-0.31,0.61,0.5,0.84
231.6009927,0.05,0.55,0.65,0.85
231.6100678,0.35,0.28,0.83,0.94
231.6286638,0.55,-0.22,0.91,1.08
231.6296618,0.6,-0.78,0.82,1.28
231.6394987,0.48,-1.28,0.75,1.55
231.6499109,0.18,-1.55,0.69,1.7
231.6601238,-0.33,-1.68,0.56,1.8
231.6704049,-0.84,-1.77,0.37,1.99
231.6803498,-1.23,-1.78,0.03,2.16
231.6903148,-1.51,-1.71,-0.36,2.3
231.7013178,-1.72,-1.5,-0.7,2.38
231.7105598,-1.95,-1.12,-0.97,2.44
231.7315459,-2.06,-0.57,-1.04,2.37
231.7335358,-2.06,0.06,-0.91,2.25
231.739749,-1.9,0.53,-0.68,2.08
231.7538068,-1.45,0.81,-0.3,1.68
231.7602339,-0.79,0.82,0.09,1.14
231.7704618,-0.32,0.62,0.3,0.75
231.780829,-0.04,0.36,0.41,0.54
231.7910748,0.11,0.09,0.4,0.42
231.8012929,0.13,-0.09,0.35,0.38
231.8108907,0.02,-0.22,0.23,0.31
231.8218527,-0.18,-0.39,0.09,0.43
231.8313658,-0.37,-0.56,-0.07,0.67
231.8437328,-0.61,-0.55,-0.15,0.83
231.8502669,-0.85,-0.39,-0.09,0.93
231.8601909,-0.87,-0.32,-0.1,0.93
231.8708797,-0.72,-0.29,-0.05,0.77
231.8804498,-0.55,-0.23,-0.05,0.59
231.8914838,-0.47,-0.08,-0.1,0.48
231.9016018,-0.53,0.16,-0.16,0.57
231.9112897,-0.74,0.44,-0.19,0.88
231.9219348,-0.99,0.68,-0.07,1.2
231.9318357,-1.19,0.8,0.13,1.43
231.9458568,-1.26,0.79,0.43,1.54
231.9507298,-1.16,0.69,0.76,1.54
231.9610128,-0.89,0.54,0.97,1.42
231.9714239,-0.67,0.47,1.09,1.36
231.9811568,-0.58,0.52,1.1,1.34
231.9917219,-0.59,0.82,1.07,1.47
232.0018587,-0.57,1.05,1.08,1.61
232.0116329,-0.37,1.08,1.11,1.59
232.0226908,-0.13,1.06,1.32,1.69
232.0315788,0.04,0.99,1.74,2
232.044045,0.14,0.89,2.17,2.34
232.0513387,0.22,0.71,2.47,2.57
232.0611598,0.25,0.47,2.56,2.61
232.0707219,0.26,0.22,2.44,2.46
232.0814867,0.27,0.05,2.19,2.2
232.0906308,0.22,-0.07,1.91,1.92
232.1007247,0.13,-0.16,1.65,1.66
232.1109538,-0.02,-0.17,1.52,1.52
232.1211267,-0.31,-0.03,1.44,1.47
232.1381149,-0.57,0.1,1.11,1.25
232.1408968,-0.52,0.03,0.54,0.75
232.1515727,-0.39,0.01,-0.06,0.39
232.1616178,-0.44,0.21,-0.45,0.66
232.171392,-0.48,0.32,-0.65,0.86
232.1824868,-0.35,0.15,-0.81,0.89
232.1917577,-0.14,-0.25,-0.8,0.84
232.2024758,0.17,-0.79,-0.61,1.01
232.2122378,0.34,-1.24,-0.26,1.31
232.2222939,0.34,-1.43,0.14,1.47
232.2428138,0.25,-1.64,0.38,1.7
232.2436378,0.22,-1.84,0.38,1.89
232.252039,0.26,-1.98,0.18,2
232.2624917,0.29,-2.03,-0.23,2.06
232.2726748,0.28,-1.99,-0.83,2.17
232.2840629,0.19,-1.89,-1.53,2.43
232.2933459,-0.06,-1.68,-2.15,2.72
232.3032069,-0.61,-1.22,-2.52,2.86
232.3132079,-1.19,-0.75,-2.59,2.94
232.3227067,-1.52,-0.55,-2.55,3.01
232.3424067,-1.49,-0.64,-2.38,2.87
232.3434858,-1.11,-0.86,-1.86,2.33
232.3524008,-0.68,-1.1,-1.25,1.79
232.3629389,-0.45,-1.26,-0.85,1.58
232.3729708,-0.18,-1.35,-0.71,1.53
232.3832397,0.05,-1.26,-0.71,1.44
232.3936388,0.17,-0.89,-0.84,1.23
232.4038248,0.26,-0.35,-0.7,0.82
232.4137588,0.4,0.06,-0.47,0.62
232.4231358,0.52,0.12,-0.3,0.61
232.4444318,0.45,-0.1,-0.36,0.58
232.4453158,0.09,-0.36,-0.6,0.7
232.452714,-0.35,-0.51,-0.87,1.06
232.4628928,-0.52,-0.77,-1.14,1.47
232.4740138,-0.64,-0.94,-1.28,1.71
232.483954,-0.75,-0.83,-1.32,1.73
232.4935207,-0.87,-0.48,-1.25,1.59
232.5042577,-0.82,-0.01,-0.94,1.24
232.513989,-0.57,0.4,-0.4,0.8
232.5242488,-0.15,0.57,0.16,0.61
232.5424337,0.19,0.47,0.56,0.75
232.5433607,0.35,0.28,0.7,0.83
232.5532298,0.2,0.16,0.66,0.7
232.5639079,-0.11,0.17,0.55,0.58
232.5739698,-0.36,0.23,0.32,0.53
232.5841126,-0.49,0.29,0.08,0.57
232.59442,-0.5,0.34,-0.09,0.61
232.6045928,-0.4,0.4,-0.18,0.59
232.6142387,-0.4,0.5,-0.23,0.68
232.624578,-0.42,0.61,-0.18,0.76
232.6438458,-0.39,0.79,0.08,0.88
232.6447608,-0.28,0.88,0.44,1.02
232.6538048,-0.09,0.86,0.68,1.1
232.664681,0.02,0.73,0.77,1.06
232.6745248,-0.03,0.63,0.72,0.95
232.6849828,-0.18,0.59,0.64,0.88
232.6947188,-0.31,0.61,0.72,0.99
232.7050567,-0.33,0.56,0.94,1.14
232.714685,-0.33,0.5,1.34,1.46
232.724782,-0.33,0.53,1.8,1.9
232.7447448,-0.23,0.45,2.11,2.16
232.7456338,-0.07,0.3,2.22,2.24
232.7543979,-0.02,0.13,2.12,2.12
232.7659779,-0.13,0.11,1.9,1.9
232.7745719,-0.36,0.37,1.86,1.93
232.7850978,-0.7,0.67,1.79,2.03
232.7955518,-0.85,0.95,1.62,2.06
232.8053548,-0.78,1.09,1.37,1.91
232.8180389,-0.59,1.15,1.2,1.76
232.824718,-0.25,1.29,1.26,1.82
232.8422098,0.35,1.5,1.59,2.21
232.844677,1.03,1.47,1.96,2.65
232.8548679,1.54,1.11,2.15,2.86
232.8666508,1.69,0.51,2.07,2.72
232.8752449,1.5,-0.15,1.78,2.33
232.8854678,1.08,-0.73,1.36,1.88
232.8956358,0.55,-1.21,0.82,1.56
232.9057848,0.06,-1.62,0.21,1.63
232.9179509,-0.23,-2,-0.44,2.06
232.9255738,-0.15,-2.42,-1.11,2.66
232.9430358,0,-2.71,-1.76,3.23
232.9448667,0.03,-2.77,-2.29,3.59
232.9552269,-0.11,-2.64,-2.74,3.8
232.9660869,-0.37,-2.44,-3.09,3.95
232.9754999,-0.6,-2.25,-3.45,4.16
232.9857619,-0.78,-2.06,-3.76,4.35
232.9957848,-0.98,-1.63,-3.79,4.24
233.006218,-1.13,-1.08,-3.52,3.85
233.017622,-1,-0.51,-3.04,3.24
233.0261149,-0.7,-0.05,-2.47,2.56
233.0446739,-0.24,0.3,-1.88,1.91
233.046062,0.18,0.63,-1.37,1.51
233.0554779,0.64,0.81,-0.86,1.34
233.066453,1.12,0.66,-0.37,1.35
233.0757899,1.42,0.27,0.07,1.44
233.0866618,1.35,-0.1,0.42,1.41
233.0966249,0.9,-0.34,0.65,1.16
233.1068609,0.37,-0.5,0.74,0.96
233.1176777,0.01,-0.73,0.73,1.03
233.1268578,-0.15,-0.95,0.69,1.18
233.1442747,-0.1,-1.12,0.6,1.27
233.1457357,-0.02,-1.17,0.46,1.25
233.1564488,-0.03,-1.03,0.33,1.08
233.1667938,-0.05,-0.88,0.16,0.89
233.176415,-0.05,-0.63,0.08,0.63
233.1864529,-0.07,-0.26,0.08,0.28
233.1970487,-0.13,0.01,0.03,0.13
233.207253,-0.21,0.24,-0.13,0.34
233.2176538,-0.3,0.49,-0.46,0.73
233.2270799,-0.31,0.71,-0.9,1.18
233.2459748,-0.27,1,-1.21,1.59
233.2470679,-0.15,1.29,-1.4,1.9
233.2564788,0.21,1.4,-1.51,2.06
233.2666507,0.49,1.47,-1.48,2.14
233.2768707,0.72,1.59,-1.16,2.09
233.2875438,0.94,1.67,-0.76,2.06
233.2970939,1.16,1.67,-0.4,2.07
233.3079038,1.27,1.69,-0.02,2.11
233.3182738,1.21,1.71,0.42,2.13
233.3275938,1.06,1.7,0.89,2.19
233.3454819,0.89,1.59,1.34,2.26
233.3466668,0.75,1.37,1.7,2.3
233.3569949,0.61,1.13,1.98,2.35
233.3676689,0.45,0.92,2.26,2.48
233.3775487,0.37,0.72,2.51,2.63
233.3879447,0.17,0.6,2.93,2.99
233.3978589,-0.18,0.5,3.62,3.65
233.4084709,-0.36,0.19,4.25,4.26
233.418263,-0.35,-0.17,4.57,4.58
233.4279399,-0.35,-0.27,4.59,4.61
233.4447799,-0.4,-0.18,4.27,4.29
233.4485297,-0.35,-0.02,3.66,3.67
233.4575279,-0.22,0.13,2.87,2.88
233.4678559,-0.12,0.31,2.11,2.13
233.4784379,0.12,0.48,1.28,1.37
233.4884398,0.58,0.67,0.38,0.96
233.5011108,1.11,0.93,-0.46,1.51
233.5083299,1.5,1.22,-1.16,2.25
233.5187569,1.69,1.45,-1.67,2.78
233.5284767,1.89,1.51,-1.74,2.97
233.5448947,2.02,1.36,-1.55,2.88
233.5487008,2.03,0.95,-1.43,2.65
233.5583949,1.9,0.42,-1.45,2.42
233.5679028,1.54,-0.08,-1.57,2.2
233.5782599,1.18,-0.6,-1.62,2.09
233.5889728,0.97,-1.15,-1.64,2.22
233.6009479,0.83,-1.65,-1.65,2.47
233.6089308,0.81,-1.97,-1.62,2.67
233.618959,0.82,-2.26,-1.57,2.87
233.6290019,0.88,-2.47,-1.58,3.06
233.6426287,1.03,-2.61,-1.76,3.31
233.6486278,1.13,-2.67,-2.12,3.59
233.6582847,1.09,-2.61,-2.62,3.85
233.6687598,0.98,-2.46,-3.1,4.07
233.6788187,1,-2.33,-3.47,4.29
233.6894307,1.09,-2.16,-3.69,4.41
233.7010016,0.99,-1.86,-3.6,4.17
233.7094169,0.8,-1.66,-3.43,3.89
233.7195158,0.59,-1.64,-3.36,3.78
233.7293308,0.25,-1.61,-3.31,3.68
233.742991,-0.03,-1.54,-3.08,3.44
233.7491426,-0.12,-1.51,-2.47,2.89
233.7587767,0.14,-1.67,-1.83,2.48
233.7694678,0.55,-1.85,-1.24,2.29
233.7791967,0.74,-1.69,-0.6,1.94
233.7898068,0.92,-1.46,0.2,1.73
233.8007569,1.18,-1.48,1.23,2.25
233.8099327,1.31,-1.45,2.57,3.22
233.8199158,1.39,-1.21,4.29,4.66
233.8298159,1.44,-1.11,5.84,6.11
233.843534,1.26,-1.22,6.69,6.91
233.8489957,0.84,-1.26,6.89,7.05
233.8592498,0.38,-1.23,6.44,6.56
233.8700767,-0.04,-1.14,5.5,5.61
233.8801107,-0.37,-0.93,4.52,4.62
233.8900089,-0.51,-0.51,3.65,3.72
233.9004149,-0.5,0,2.84,2.88
233.9101598,-0.45,0.4,2.1,2.18
233.92029,-0.37,0.73,1.55,1.75
233.9302318,-0.26,0.98,1.16,1.54
233.9446707,-0.11,1.07,0.91,1.4
233.9499228,0.03,1.1,0.7,1.3
233.9593508,0.08,1.11,0.6,1.26
233.9700508,0.2,1.07,0.54,1.21
233.9800076,0.23,1.09,0.51,1.22
233.9904838,0.09,1.08,0.5,1.19
234.0009458,-0.06,0.98,0.48,1.09
234.010963,-0.13,0.79,0.43,0.9
234.0205078,-0.13,0.62,0.46,0.78
234.0305488,-0.18,0.6,0.56,0.84
234.0451198,-0.22,0.57,0.71,0.93
234.0500307,-0.26,0.59,0.88,1.09
234.0599298,-0.38,0.6,0.92,1.16
234.0706329,-0.52,0.55,0.84,1.13
234.0802779,-0.56,0.59,0.84,1.16
234.0905378,-0.63,0.7,0.95,1.33
234.1012988,-0.65,0.73,1.02,1.41
234.1109819,-0.55,0.65,0.98,1.29
234.120997,-0.47,0.62,0.79,1.1
234.1435189,-0.42,0.73,0.4,0.93
234.1445727,-0.4,0.89,-0.07,0.97
234.1505828,-0.27,0.97,-0.47,1.11
234.160749,-0.07,1.04,-0.55,1.17
234.1710429,0.18,0.99,-0.42,1.09
234.1811666,0.45,0.85,-0.34,1.02
234.1915429,0.71,0.67,-0.36,1.04
234.2016468,0.79,0.63,-0.44,1.1
234.2115088,0.73,0.67,-0.47,1.09
234.2215819,0.6,0.7,-0.57,1.08
234.2435899,0.42,0.65,-0.74,1.07
234.244483,0.23,0.66,-0.79,1.05
234.2510428,0.04,0.63,-0.77,0.99
234.2614069,-0.08,0.55,-0.79,0.96
234.2715077,-0.12,0.46,-0.78,0.91
234.2827888,-0.07,0.28,-0.84,0.88
234.2918699,0.06,-0.03,-1.05,1.05
234.302012,0.24,-0.31,-1.22,1.28
234.3120959,0.36,-0.57,-1.27,1.43
234.322084,0.38,-0.79,-1.26,1.53
234.3420467,0.39,-1.06,-1.24,1.67
234.3429809,0.37,-1.27,-1.09,1.71
234.3514228,0.25,-1.34,-0.79,1.57
234.3611526,0.12,-1.38,-0.52,1.47
234.3719177,0.18,-1.48,-0.5,1.57
234.3832879,0.33,-1.6,-0.75,1.79
234.3922129,0.43,-1.69,-1.12,2.07
234.4026608,0.39,-1.67,-1.48,2.26
234.4124737,0.22,-1.55,-1.8,2.38
234.4225607,0.03,-1.34,-2.01,2.41
234.4449909,-0.08,-1.09,-2.21,2.46
234.4459178,-0.17,-0.82,-2.36,2.5
234.4516108,-0.25,-0.57,-2.4,2.47
234.4617648,-0.34,-0.33,-2.32,2.36
234.472435,-0.41,-0.15,-2.22,2.26
234.4823499,-0.41,-0.04,-2.05,2.09
234.4924068,-0.35,0,-1.74,1.77
234.5030508,-0.37,0.04,-1.43,1.47
234.5128317,-0.39,0.04,-1.15,1.21
234.5230718,-0.37,-0.06,-0.86,0.93
234.5444317,-0.39,-0.22,-0.63,0.77
234.5452147,-0.42,-0.39,-0.43,0.71
234.552372,-0.4,-0.51,-0.13,0.66
234.5620937,-0.3,-0.5,0.35,0.68
234.5732448,-0.05,-0.45,0.88,0.98
234.5832999,0.28,-0.49,1.25,1.37
234.5929358,0.58,-0.64,1.29,1.55
234.6033988,0.73,-0.73,1.23,1.6
234.613132,0.7,-0.73,1.14,1.52
234.6235058,0.44,-0.71,0.96,1.27
234.6449718,-0.01,-0.69,0.86,1.1
234.6460059,-0.42,-0.79,0.69,1.12
234.6526527,-0.72,-0.88,0.53,1.25
234.6625228,-0.88,-0.75,0.43,1.23
234.6729059,-1.12,-0.47,0.4,1.27
234.6831789,-1.32,-0.07,0.47,1.4
234.6933668,-1.41,0.18,0.4,1.47
234.7038438,-1.44,0.22,0.2,1.47
234.7139907,-1.31,0.23,0,1.33
234.7240977,-1.09,0.29,-0.05,1.12
234.7457557,-0.72,0.45,0.09,0.85
234.7479067,-0.34,0.69,0.44,0.88
234.7532318,-0.05,0.93,0.86,1.26
234.7632458,0.05,1.12,1.39,1.78
234.7733507,0,1.17,1.71,2.07
234.7834709,-0.17,1.12,1.72,2.05
234.7938008,-0.37,1.05,1.62,1.96
234.8036678,-0.56,0.93,1.47,1.82
234.8143697,-0.66,0.78,1.39,1.72
234.8241997,-0.65,0.63,1.3,1.58
234.8445678,-0.59,0.5,1.17,1.4
234.8454988,-0.48,0.51,1.01,1.22
234.853807,-0.28,0.6,0.87,1.09
234.863441,-0.01,0.66,0.71,0.96
234.8736868,0.24,0.75,0.47,0.91
234.8840919,0.27,1.04,0.46,1.16
234.8947139,0.16,1.33,0.51,1.43
234.9047978,0,1.42,0.57,1.53
234.9169729,-0.13,1.25,0.62,1.4
234.9251809,-0.21,0.99,0.6,1.17
234.9304976,-0.21,0.92,0.64,1.14
234.9407659,-0.38,0.65,0.52,0.91
234.950079,-0.58,0.53,0.44,0.9
234.9597359,-0.6,0.54,0.42,0.9
234.970655,-0.5,0.59,0.36,0.85
234.9826508,-0.46,0.73,0.26,0.9
234.9908879,-0.45,0.86,0.06,0.97
235.0005128,-0.32,0.86,-0.19,0.93
235.0102978,-0.12,0.85,-0.28,0.9
235.0200639,0.17,0.86,-0.04,0.87
235.0387087,0.34,0.85,0.35,0.98
235.0393777,0.45,0.64,0.6,0.98
235.0501428,0.54,0.29,0.65,0.89
235.0614278,0.48,-0.11,0.59,0.76
235.0705168,0.44,-0.46,0.6,0.87
235.0805187,0.52,-0.69,0.72,1.12
235.0910187,0.74,-0.99,0.81,1.47
235.1016879,0.98,-1.34,0.73,1.81
235.1115026,1.12,-1.54,0.52,1.97
235.1214037,1.14,-1.54,0.27,1.93
235.1427279,1.18,-1.48,0.02,1.89
235.1435647,1.2,-1.46,-0.08,1.89
235.1507869,1.22,-1.67,-0.27,2.08
235.1609898,1.18,-1.79,-0.46,2.19
235.1708689,1.21,-1.59,-0.47,2.05
235.1833098,1.34,-1.4,-0.49,1.99
235.1916108,1.25,-1.13,-0.51,1.76
235.2013628,0.98,-0.88,-0.53,1.41
235.2109149,0.69,-0.77,-0.5,1.14
235.221066,0.62,-0.85,-0.44,1.14
235.2417459,0.75,-1.02,-0.45,1.34
235.2427218,0.83,-1.03,-0.45,1.39
235.2526698,0.88,-0.98,-0.34,1.36
235.2620797,0.91,-0.85,-0.25,1.27
235.2718558,0.99,-0.67,-0.29,1.23
235.2827277,1.22,-0.55,-0.32,1.37
235.2925389,1.47,-0.49,-0.35,1.58
235.303721,1.57,-0.45,-0.42,1.68
235.3177998,1.38,-0.42,-0.67,1.59
235.3246439,1.14,-0.4,-0.61,1.35
235.3450658,0.85,-0.37,-0.25,0.96
235.3460817,0.7,-0.45,0.15,0.84
235.3544579,0.69,-0.55,0.4,0.96
235.3659897,0.71,-0.53,0.53,1.03
235.3746109,0.81,-0.4,0.51,1.03
235.3857138,0.81,-0.16,0.25,0.86
235.3949957,0.85,0.12,-0.11,0.86
235.4047568,0.84,0.35,-0.36,0.97
235.4149988,0.7,0.52,-0.44,0.97
235.4242098,0.5,0.65,-0.43,0.92
235.4387617,0.29,0.64,-0.51,0.86
235.4442987,0.14,0.5,-0.58,0.77
235.456296,0.21,0.41,-0.29,0.54
235.4655118,0.66,0.23,0.22,0.73
235.4762359,1.19,0.19,0.59,1.34
235.4860439,1.47,0.36,0.75,1.68
235.4959998,1.41,0.54,0.7,1.66
235.5059209,1.07,0.7,0.6,1.41
235.5171199,0.63,0.74,0.42,1.05
235.5263777,0.4,0.61,0.23,0.76
235.5458107,0.3,0.47,0.22,0.59
235.5480947,0.27,0.42,0.24,0.55
235.555285,0.42,0.41,0.21,0.62
235.565434,0.48,0.43,0.13,0.65
235.5756998,0.32,0.57,0.05,0.65
235.5859599,0.22,0.66,-0.02,0.69
235.5963387,0.15,0.7,0.11,0.72
235.6067328,0.24,0.68,0.58,0.92
235.6171768,0.47,0.49,1.09,1.28
235.6264508,0.77,0.19,1.39,1.6
235.6385248,0.88,-0.09,1.49,1.73
235.6460199,0.74,-0.25,1.47,1.66
235.6580198,0.58,-0.25,1.44,1.57
235.6659169,0.5,-0.22,1.2,1.31
235.6759458,0.29,-0.27,0.6,0.71
235.6859608,0.09,-0.26,0.15,0.31
235.6992517,0.06,0.02,0.09,0.11
235.7064977,0.15,0.39,-0.08,0.42
235.7184258,0.44,0.56,-0.26,0.75
235.7265458,0.56,0.54,-0.42,0.88
235.7373567,0.3,0.52,-0.39,0.71
235.7470229,0.15,0.28,-0.24,0.39
235.7582128,0.2,-0.13,-0.12,0.26
235.7663448,0.3,-0.51,-0.06,0.59
235.7770357,0.42,-0.85,0.01,0.94
235.7863679,0.55,-1.18,-0.04,1.3
235.7970309,0.6,-1.47,-0.25,1.6
235.806911,0.55,-1.69,-0.52,1.85
235.8170369,0.35,-1.75,-0.84,1.97
235.8279939,-0.07,-1.47,-0.99,1.77
235.8376498,-0.26,-1.27,-0.95,1.6
235.8584208,-0.46,-1.16,-0.8,1.48
235.859396,-0.7,-1.07,-0.46,1.35
235.8668957,-0.62,-1.16,-0.22,1.33
235.8765898,-0.54,-1.24,-0.16,1.36
235.8873289,-0.45,-1.18,-0.19,1.27
235.8992,-0.3,-1.01,-0.25,1.08
235.9074178,-0.2,-0.65,-0.27,0.73
235.9180179,-0.26,-0.21,-0.35,0.48
235.9281578,-0.35,0.14,-0.39,0.54
235.9382398,-0.35,0.35,-0.25,0.55
235.9584737,-0.06,0.32,0.07,0.33
235.9594138,0.34,0.06,0.39,0.52
235.9673288,0.64,-0.22,0.54,0.86
235.9776969,0.77,-0.43,0.5,1.01
235.9877219,0.7,-0.52,0.42,0.96
235.9997098,0.57,-0.6,0.28,0.87
236.0077848,0.44,-0.66,0.1,0.79
236.0180578,0.3,-0.69,-0.13,0.76
236.0283659,0.28,-0.65,-0.12,0.71
236.0377939,0.42,-0.63,0.09,0.76
236.060709,0.66,-0.85,0.01,1.07
236.0615959,0.95,-0.99,-0.35,1.41
236.0676947,1.1,-0.92,-0.71,1.6
236.0776448,1.07,-0.61,-0.97,1.56
236.0881987,0.91,-0.17,-1.11,1.44
236.0989399,0.52,0.18,-1.23,1.34
236.1086419,0.28,0.3,-1.3,1.36
236.1188307,0.23,0.36,-1.36,1.42
236.1287327,0.31,0.41,-1.49,1.57
236.1383579,0.65,0.55,-1.52,1.74
236.1598549,1.19,0.71,-1.41,1.97
236.16078,1.63,0.78,-1.24,2.19
236.1680129,1.89,0.9,-1.04,2.33
236.1778648,2.06,1.09,-0.77,2.45
236.1886418,2.3,1.01,-0.47,2.55
236.1992297,2.29,0.62,0.07,2.37
236.2089899,1.93,0.26,0.62,2.04
236.2186627,1.61,0.27,1.23,2.04
236.2288818,1.5,0.14,1.55,2.16
236.2388177,1.55,-0.08,1.44,2.11
236.2596827,1.61,-0.16,0.9,1.85
236.260613,1.33,-0.17,0.04,1.34
236.2684879,1.18,-0.39,-0.56,1.36
236.2783978,2.09,-1.06,-0.83,2.48
236.2890487,2.16,-1.05,-0.61,2.47
236.299253,2.18,-0.99,-0.03,2.39
236.3096247,1.88,-0.89,1.36,2.48
236.3196869,1.55,-0.91,2.54,3.11
236.3296857,1.38,-0.99,2.91,3.36
236.3391378,1.45,-1.05,2.45,3.03
236.3588448,2.02,-0.82,1.19,2.48
236.3597758,2.47,-0.77,0.02,2.58
236.3690188,2.07,-1.14,-0.62,2.44
236.3790517,1.35,-1.52,-0.95,2.24
236.3896017,0.97,-1.65,-1.28,2.3
236.3997188,0.59,-1.43,-1.52,2.16
236.4098518,0.26,-1.17,-1.05,1.59
236.4201369,0.04,-1.07,-0.02,1.07
236.4306207,-0.1,-1.18,0.89,1.48
236.4398568,-0.25,-1.64,2.24,2.78
236.4595568,-0.18,-1.91,3.19,3.72
236.4602747,0.66,-2.11,1.36,2.59
236.4694118,0.99,-2.24,1.96,3.13
236.4793928,1.38,-2.44,3.11,4.18
236.4898119,1.62,-3.12,4.19,5.46
236.4998918,1.41,-3.12,5.27,6.28
236.5099568,1.06,-2.59,5.81,6.44
236.5205359,0.68,-2.43,5.69,6.22
236.5304627,0.37,-2.58,5.17,5.78
236.5401309,0.34,-2.63,4.67,5.37
236.55756,0.47,-2.67,4.2,4.99
236.5597408,0.74,-2.66,3.83,4.72
236.5699697,1.02,-2.65,3.39,4.42
236.5815609,1.21,-2.58,3.05,4.17
236.5902138,1.09,-2.57,2.71,3.89
236.6006858,0.82,-2.47,2.17,3.38
236.6108868,0.72,-2.33,1.82,3.04
236.6212559,0.76,-2.21,1.41,2.72
236.6345358,1.02,-1.97,0.89,2.39
236.6405919,1.56,-1.73,0.32,2.35
236.6582549,2.09,-1.68,0.01,2.68
236.6599598,2.34,-1.78,-0.24,2.94
236.6703267,2.37,-1.73,-0.15,2.93
236.6818569,1.99,-1.86,0.01,2.72
236.6909337,1.31,-2.24,-0.04,2.59
236.7009199,0.95,-2.39,0.01,2.57
236.7112749,1.12,-2.47,0.22,2.72
236.7213778,1.31,-2.39,0.57,2.78
236.7336369,1.34,-2.1,0.76,2.6
236.7417748,1.29,-1.9,0.36,2.32
236.7590759,1.01,-1.73,-0.31,2.02
236.7603638,0.52,-1.57,-1.02,1.94
236.7708249,0.17,-1.46,-1.39,2.02
236.7819288,0.17,-1.46,-1.36,2
236.7913389,0.28,-1.55,-0.99,1.86
236.8013549,0.26,-1.5,-0.22,1.53
236.8113017,0.28,-1.4,0.49,1.5
236.8220458,0.46,-1.46,0.86,1.75
236.833375,0.71,-1.49,1.12,1.99
236.8414817,0.84,-1.44,1.19,2.04
236.8589208,1,-1.43,1.39,2.23
236.861043,1.19,-1.44,1.71,2.53
236.8711958,1.25,-1.47,1.64,2.53
236.8817508,1.14,-1.46,1.24,2.22
236.8917999,1,-1.35,0.68,1.81
236.9018369,0.8,-1.22,0.05,1.45
236.9121847,0.44,-1.07,-0.5,1.26
236.9224458,-0.2,-0.73,-0.81,1.1
236.9336379,-0.59,-0.36,-0.74,1.01
236.941782,-0.25,-0.39,-0.32,0.56
236.9593198,0.1,-0.61,0.32,0.69
236.9613647,0.23,-0.71,0.85,1.13
236.9717937,0.33,-0.66,1.16,1.37
236.9814487,0.49,-0.58,1.34,1.54
236.9920249,0.55,-0.58,1.18,1.42
237.0022407,0.49,-0.59,0.81,1.11
237.0129158,0.47,-0.53,0.29,0.76
237.0228829,0.67,-0.5,-0.11,0.84
237.0331969,0.82,-0.52,-0.19,0.98
237.0420327,0.65,-0.52,0.13,0.84
237.059073,0.25,-0.61,0.53,0.84
237.0621748,-0.19,-0.91,0.58,1.09
237.0720918,-0.57,-1.14,0.31,1.31
237.0821428,-0.9,-1.11,0.05,1.42
237.0926089,-1.01,-0.85,-0.23,1.33
237.1027098,-0.73,-0.42,-0.58,1.02
237.1133409,-0.38,-0.05,-0.59,0.7
237.1232638,-0.42,0.03,-0.23,0.47
237.133657,-0.72,-0.13,0.36,0.81
237.1430929,-0.93,-0.32,1.02,1.41
237.1584258,-1.01,-0.49,1.32,1.73
237.1624379,-0.98,-0.63,1.08,1.58
237.1724958,-0.78,-0.85,0.35,1.2
237.1826499,-0.18,-1.09,-0.4,1.17
237.1929219,0.42,-1.08,-0.27,1.18
237.2037086,0.65,-0.85,0.43,1.15
237.2138929,0.62,-0.71,1.07,1.42
237.2238479,0.53,-0.84,1.3,1.63
237.2336817,0.3,-1.28,1.15,1.74
237.243917,-0.22,-1.72,0.84,1.92
237.2596848,-1.09,-1.87,0.27,2.18
237.2628736,-1.94,-1.66,-0.33,2.57
237.2731528,-1.93,-1.3,-0.65,2.41
237.2834868,-1.36,-1.01,-0.68,1.82
237.2934737,-0.78,-0.62,-0.46,1.09
237.3036718,-0.46,-0.32,-0.09,0.56
237.3137908,-0.55,-0.18,0.15,0.59
237.3240089,-0.77,-0.17,0.08,0.79
237.3342447,-1.04,-0.11,-0.28,1.08
237.3437958,-1.6,0.02,-0.67,1.73
237.3595479,-2.08,0.1,-0.99,2.3
237.3645308,-1.89,0.11,-1.06,2.16
237.3734238,-1.51,0.29,-0.65,1.66
237.3837957,-1.39,0.45,-0.2,1.47
237.3937788,-1.39,0.4,0.1,1.44
237.4044888,-1.47,0.21,0.16,1.49
237.4167719,-1.53,0.04,-0.04,1.53
237.4244359,-1.54,0.05,-0.34,1.57
237.4345798,-1.56,0.12,-0.56,1.66
237.4444327,-1.5,0.23,-0.54,1.61
237.4597619,-1.37,0.27,-0.33,1.43
237.4647527,-1.19,0.3,-0.12,1.23
237.473835,-1.09,0.31,-0.05,1.13
237.4839249,-1.1,0.33,-0.13,1.15
237.4941287,-1.21,0.29,-0.29,1.27
237.5049748,-1.5,0.14,-0.58,1.61
237.5167518,-1.84,-0.04,-0.82,2.01
237.5250409,-2.05,-0.11,-0.92,2.24
237.5348258,-2.09,-0.11,-0.76,2.22
237.5450888,-2.25,-0.01,-0.43,2.29
237.5587168,-2.37,0.14,-0.13,2.37
237.5644889,-2.31,0.25,0.1,2.32
237.5743546,-2.16,0.28,0.16,2.18
237.5848827,-2.07,0.35,0.02,2.09
237.5948179,-1.98,0.56,-0.29,2.07
237.6055737,-1.91,0.83,-0.48,2.13
237.6167908,-1.7,1.06,-0.47,2.05
237.6253667,-1.47,1.12,-0.41,1.89
237.6354389,-1.26,0.96,-0.33,1.61
237.6457028,-1.13,0.76,-0.23,1.38
237.6595488,-1.21,0.73,-0.02,1.41
237.6645327,-1.34,0.9,0.19,1.62
237.6747899,-1.33,0.99,0.37,1.69
237.6851439,-1.19,0.98,0.4,1.59
237.6953869,-0.96,0.93,0.36,1.38
237.7057977,-0.79,0.94,0.23,1.24
237.7166777,-0.74,0.99,-0.02,1.23
237.7258897,-0.76,1.11,-0.24,1.36
237.7359998,-0.9,1.38,-0.25,1.66
237.7453508,-0.94,1.66,-0.05,1.9
237.7574108,-0.83,1.67,0.19,1.87
237.7651119,-0.67,1.49,0.59,1.73
237.775034,-0.63,1.24,0.8,1.6
237.7859697,-0.74,1.05,0.77,1.49
237.795414,-0.95,1.04,0.57,1.51
237.8056939,-1.21,1.17,0.28,1.7
237.8166738,-1.38,1.48,0.1,2.02
237.8260188,-1.33,1.94,0.23,2.36
237.8365939,-1.15,2.02,0.35,2.35
237.8466697,-0.92,1.8,0.38,2.05
237.859777,-0.86,1.59,0.36,1.84
237.8656349,-0.96,1.53,0.34,1.83
237.8757997,-1.08,1.57,0.23,1.91
237.8861918,-1.11,1.76,0.14,2.08
237.8960958,-0.94,2.05,0.3,2.27
237.9062989,-0.66,2.18,0.54,2.34
237.9163136,-0.33,1.98,0.75,2.14
237.9268479,-0.02,1.6,0.76,1.77
237.9367247,0.09,1.2,0.44,1.28
237.947331,-0.02,0.83,-0.08,0.83
237.959754,-0.2,0.56,-0.65,0.88
237.9661949,-0.39,0.41,-1.05,1.19
237.9762208,-0.47,0.31,-1.21,1.33
237.9867198,-0.34,0.16,-1.13,1.19
237.9960947,0.02,-0.1,-0.78,0.78
238.0058608,0.43,-0.61,-0.36,0.82
238.0157089,0.75,-1.26,-0.13,1.47
238.0257938,0.93,-1.79,-0.04,2.01
238.0357888,0.95,-2.19,-0.07,2.38
238.0458648,0.96,-2.41,-0.27,2.6
238.0570078,0.89,-2.46,-0.59,2.68
238.0665936,0.77,-2.33,-0.95,2.63
238.0762389,0.69,-2.15,-1.31,2.61
238.0864019,0.68,-1.95,-1.6,2.61
238.0967858,0.73,-1.73,-1.75,2.56
238.1075597,0.85,-1.47,-1.6,2.33
238.1176279,1.05,-1.35,-1.34,2.17
238.1262128,1.28,-1.26,-1.03,2.07
238.1376667,1.47,-1.17,-0.75,2.02
238.1606388,1.52,-1.07,-0.72,1.99
238.1615868,1.42,-0.92,-0.83,1.88
238.16713,1.3,-0.72,-0.98,1.78
238.1772656,1.23,-0.5,-1.09,1.71
238.1876068,1.2,-0.34,-1.12,1.67
238.1985989,1.2,-0.26,-1.08,1.63
238.2075367,1.1,-0.23,-0.86,1.41
238.2173269,0.97,-0.23,-0.44,1.08
238.2280958,0.89,-0.29,0.04,0.93
238.238122,0.92,-0.41,0.48,1.11
238.2586637,1.05,-0.53,0.89,1.47
238.259594,1.09,-0.62,1.22,1.74
238.2673879,1.07,-0.71,1.37,1.87
238.2778268,0.87,-0.73,1.37,1.77
238.2883577,0.62,-0.7,1.28,1.58
238.3001246,0.35,-0.56,1.13,1.3
238.3084579,0.09,-0.33,1.02,1.07
238.3187618,-0.1,0,0.94,0.94
238.3284538,-0.15,0.31,0.84,0.9
238.3384089,-0.03,0.56,0.81,0.98
238.3603928,0.2,0.67,0.72,1
238.3612778,0.46,0.66,0.51,0.95
238.3678327,0.74,0.67,0.31,1.04
238.3778038,0.99,0.75,0.16,1.25
238.3883018,1.15,0.92,0.12,1.47
238.3985786,1.25,1.01,0.1,1.61
238.4091039,1.17,0.95,-0.03,1.5
238.4190807,0.94,0.82,-0.22,1.26
238.4293718,0.69,0.76,-0.39,1.09
238.439147,0.49,0.83,-0.41,1.04
238.4610958,0.41,0.93,-0.29,1.05
238.462101,0.36,0.86,-0.2,0.95
238.468082,0.23,0.72,-0.26,0.79
238.4781427,0.05,0.71,-0.35,0.79
238.4890168,-0.27,0.82,-0.36,0.93
238.4989629,-0.62,0.94,-0.36,1.18
238.5087399,-0.94,1.06,-0.31,1.45
238.5188317,-1.1,1.16,-0.19,1.6
238.5295308,-1.14,1.23,-0.03,1.67
238.5390449,-1.25,1.19,0.05,1.72
238.561204,-1.27,1.12,0.02,1.69
238.5623388,-1.24,0.96,-0.14,1.57
238.5686958,-1.2,0.82,-0.33,1.49
238.5785859,-0.99,0.98,-0.14,1.4
238.5888157,-0.51,1.53,0.89,1.84
238.5991898,-0.09,1.6,1.87,2.46
238.6097538,0.27,1.33,2.36,2.72
238.6197588,0.23,0.84,2.29,2.45
238.6303668,-0.05,0.44,1.82,1.87
238.6397188,-0.5,0.26,1.3,1.41
238.6597388,-0.89,0.31,0.82,1.24
238.6606638,-1.21,0.45,0.47,1.37
238.66923,-1.38,0.47,0.27,1.48
238.6801167,-1.32,0.28,0.17,1.36
238.6897669,-1.11,-0.08,0.23,1.13
238.6995358,-0.82,-0.44,0.34,0.99
238.7098179,-0.62,-0.71,0.41,1.02
238.7205,-0.52,-0.98,0.37,1.16
238.732698,-0.47,-1.27,0.25,1.37
238.7402968,-0.4,-1.56,0.1,1.61
238.7621069,-0.46,-1.86,-0.14,1.92
238.764359,-0.7,-2.06,-0.43,2.21
238.7695198,-0.96,-2.07,-0.66,2.37
238.7807808,-1.22,-1.95,-0.78,2.42
238.79001,-1.4,-1.8,-0.91,2.45
238.8001828,-1.59,-1.58,-0.94,2.43
238.8104818,-1.68,-1.35,-0.93,2.34
238.8208048,-1.78,-1.13,-0.92,2.3
238.8327508,-1.81,-0.86,-0.87,2.18
238.8408489,-1.73,-0.46,-0.59,1.88
238.8601327,-1.59,-0.12,-0.44,1.65
238.860961,-1.4,0.05,-0.44,1.46
238.8700719,-1.15,0.19,-0.41,1.23
238.8812578,-0.85,0.28,-0.3,0.94
238.8905408,-0.5,0.24,-0.17,0.58
238.9003289,-0.27,-0.02,-0.17,0.31
238.9105198,-0.29,-0.27,-0.21,0.44
238.9211249,-0.54,-0.43,-0.24,0.73
238.9328778,-0.79,-0.53,-0.28,0.99
238.9412458,-0.83,-0.61,-0.22,1.05
238.9636359,-0.74,-0.79,-0.26,1.11
238.965529,-0.74,-1,-0.39,1.3
238.9702749,-0.85,-1,-0.43,1.38
238.9847229,-1,-0.83,-0.35,1.34
238.9911928,-1.12,-0.64,-0.23,1.31
239.0010848,-1.15,-0.55,-0.11,1.27
239.0109639,-1.1,-0.46,0.06,1.19
239.0212538,-1.1,-0.38,0.19,1.17
239.0328588,-1.07,-0.27,0.25,1.13
239.0415998,-0.93,-0.08,0.48,1.04
239.0640068,-0.67,0.09,0.75,1
239.0658028,-0.5,0.09,0.74,0.89
239.0708039,-0.47,0.11,0.62,0.78
239.0850286,-0.49,0.26,0.47,0.72
239.09127,-0.56,0.49,0.37,0.83
239.1013808,-0.6,0.66,0.26,0.92
239.1118779,-0.55,0.74,0.18,0.93
239.1220098,-0.39,0.82,0.14,0.91
239.1329198,-0.18,0.93,0.26,0.98
239.1420989,0.07,1.07,0.48,1.17
239.163281,0.3,1.08,0.65,1.29
239.1653447,0.44,1.01,0.81,1.36
239.1712139,0.61,0.89,0.95,1.43
239.1812198,0.63,0.76,1.08,1.46
239.1920829,0.61,0.52,1.21,1.45
239.2018347,0.54,0.25,1.24,1.37
239.2125728,0.46,-0.02,1.26,1.34
239.2223709,0.37,-0.19,1.28,1.34
239.2326818,0.27,-0.31,1.25,1.31
239.2423828,0.18,-0.3,1.17,1.22
239.2545319,0.11,-0.22,1.06,1.08
239.262208,0.03,-0.09,0.85,0.85
239.274972,-0.05,0.06,0.62,0.62
239.2817659,-0.11,0.19,0.32,0.38
239.2917809,-0.16,0.34,0.08,0.38
239.3024948,-0.13,0.45,-0.18,0.5
239.3120389,-0.14,0.52,-0.59,0.79
239.3224497,-0.12,0.54,-0.99,1.13
239.3331358,-0.06,0.43,-1.3,1.37
239.3429008,0.06,0.17,-1.49,1.5
239.3540628,0.21,-0.2,-1.5,1.52
239.3625088,0.3,-0.6,-1.34,1.49
239.3751307,0.25,-0.95,-1.09,1.46
239.3823638,0.15,-1.15,-0.86,1.44
239.392344,0.04,-1.29,-0.7,1.46
239.4027867,-0.02,-1.4,-0.65,1.54
239.4127927,-0.04,-1.43,-0.59,1.54
239.4233847,-0.07,-1.3,-0.55,1.41
239.4332788,-0.08,-1.16,-0.53,1.27
239.4433637,-0.14,-0.92,-0.39,1
239.45503,-0.3,-0.59,-0.17,0.68
239.4631877,-0.47,-0.27,0,0.54
239.4760747,-0.58,-0.09,0.09,0.59
239.482945,-0.51,-0.04,0.11,0.52
239.4924469,-0.41,-0.04,0.15,0.43
239.5033078,-0.25,-0.06,0.12,0.28
239.5156069,-0.06,-0.19,-0.01,0.19
239.523572,0.11,-0.44,-0.16,0.48
239.5338619,0.22,-0.64,-0.29,0.73
239.5437779,0.19,-0.67,-0.37,0.78
239.5535598,0.03,-0.56,-0.43,0.7
239.5747938,-0.13,-0.36,-0.54,0.66
239.5756569,-0.13,-0.16,-0.7,0.72
239.5833318,-0.01,0,-0.81,0.81
239.5930789,0.1,0.13,-0.85,0.86
239.603601,0.17,0.22,-0.82,0.86
239.6144948,0.09,0.33,-0.73,0.8
239.624177,-0.09,0.49,-0.58,0.76
239.6344519,-0.23,0.59,-0.39,0.74
239.6447399,-0.26,0.62,-0.22,0.7
239.6538599,-0.29,0.55,-0.27,0.67
239.6759157,-0.39,0.5,-0.45,0.77
239.6770148,-0.59,0.48,-0.64,0.99
239.6835227,-0.84,0.49,-0.8,1.25
239.6939518,-0.99,0.45,-0.89,1.4
239.704052,-1.05,0.29,-0.89,1.4
239.7155609,-1.06,0.07,-0.87,1.37
239.7246828,-0.87,-0.1,-0.78,1.17
239.734818,-0.67,-0.15,-0.52,0.86
239.7447248,-0.56,-0.08,-0.18,0.59
239.7544298,-0.52,0.15,0.15,0.56
239.7751138,-0.44,0.4,0.39,0.71
239.7762399,-0.45,0.56,0.34,0.79
239.7840137,-0.32,0.52,0.1,0.61
239.7944427,0.1,0.35,0.14,0.38
239.8045669,0.47,0.12,0.52,0.71
239.815084,0.61,-0.09,1,1.17
239.8251548,0.51,-0.18,1.34,1.44
239.8353677,0.17,-0.21,1.49,1.51
239.8455288,-0.17,-0.3,1.4,1.44
239.8546419,-0.37,-0.49,1.16,1.31
239.8754687,-0.4,-0.73,0.95,1.26
239.8763838,-0.21,-1.03,0.82,1.33
239.8846369,0,-1.27,0.66,1.43
239.8951569,0.13,-1.33,0.45,1.41
239.9051027,0.2,-1.25,0.24,1.28
239.9151769,0.27,-1.14,0.13,1.17
239.9248538,0.24,-1.06,0.13,1.09
239.935576,0.01,-0.9,0.2,0.92
239.9456029,-0.3,-0.68,0.29,0.79
239.9556379,-0.53,-0.51,0.44,0.85
239.9754877,-0.63,-0.51,0.53,0.96
239.9763818,-0.54,-0.59,0.58,0.98
239.9848578,-0.49,-0.63,0.61,1
239.9949598,-0.41,-0.57,0.63,0.94
240.0055389,-0.22,-0.46,0.59,0.77
240.015873,-0.04,-0.36,0.6,0.7
240.0255878,0.12,-0.27,0.63,0.69
240.0354648,0.26,-0.07,0.82,0.86
240.0459819,0.36,0.13,1,1.07
240.0556417,0.31,0.26,0.95,1.03
240.074636,0.22,0.31,0.72,0.81
240.0756109,0.21,0.37,0.35,0.55
240.0854688,0.24,0.47,-0.03,0.52
240.0957358,0.34,0.59,-0.37,0.77
240.1058569,0.38,0.77,-0.6,1.04
240.1155329,0.41,0.98,-0.6,1.22
240.1262679,0.37,1.09,-0.45,1.23
240.1364069,0.32,1.08,-0.24,1.15
240.1463568,0.2,1.03,0.04,1.05
240.1564579,0.08,0.9,0.35,0.96
240.1759958,0.1,0.72,0.52,0.89
240.1769137,0.2,0.56,0.72,0.93
240.1858549,0.4,0.31,0.83,0.97
240.197825,0.56,0.11,0.83,1
240.2066028,0.71,0.09,0.78,1.05
240.2168019,0.85,0.22,0.78,1.17
240.22682,0.95,0.39,0.79,1.29
240.2367167,0.97,0.49,0.79,1.34
240.2490129,0.95,0.49,0.83,1.35
240.256351,0.88,0.38,0.91,1.32
240.2756758,0.78,0.27,0.98,1.28
240.2769279,0.71,0.12,1.04,1.26
240.2862718,0.64,0.06,1.16,1.32
240.2982488,0.5,-0.02,1.27,1.36
240.3067198,0.33,-0.09,1.21,1.25
240.3168688,0.25,-0.18,1.19,1.22
240.3272388,0.17,-0.22,1.2,1.23
240.3371599,0.15,-0.22,1.18,1.2
240.3493767,0.16,-0.12,1.17,1.18
240.3576117,0.18,0.05,1.11,1.12
240.3752389,0.2,0.23,0.96,1
240.3765428,0.26,0.38,0.78,0.9
240.3866878,0.34,0.46,0.46,0.73
240.3981478,0.4,0.5,0.14,0.65
240.4074597,0.31,0.48,-0.23,0.61
240.417954,0.27,0.42,-0.45,0.67
240.4276438,0.33,0.25,-0.58,0.71
240.4377608,0.5,-0.03,-0.75,0.9
240.4491959,0.82,-0.31,-0.84,1.21
240.457757,1.22,-0.55,-0.87,1.59
240.4760947,1.63,-0.76,-0.82,1.97
240.4771929,2.04,-0.94,-0.63,2.33
240.4871998,2.27,-1.13,-0.3,2.55
240.4979248,2.23,-1.34,0.03,2.6
240.5074809,2.04,-1.62,0.07,2.6
240.5176368,1.64,-1.83,-0.05,2.45
240.5280409,1.2,-1.86,-0.24,2.22
240.5384269,0.9,-1.74,-0.44,2
240.5499089,0.77,-1.51,-0.5,1.76
240.5578537,0.83,-1.27,-0.45,1.58
240.5735159,1,-1.14,-0.44,1.57
240.5774159,1.19,-1,-0.46,1.62
240.587595,1.16,-0.88,-0.6,1.57
240.5985169,0.88,-0.78,-0.7,1.36
240.6081338,0.54,-0.73,-0.79,1.2
240.6186438,0.25,-0.81,-0.92,1.25
240.6284246,0.05,-0.95,-1.09,1.44
240.6386456,0.03,-1.05,-1.11,1.52
240.6491857,0.06,-1.06,-1.14,1.55
240.6585438,0.08,-0.93,-1.13,1.46
240.6742148,0.15,-0.72,-1.1,1.32
240.6777167,0.29,-0.59,-1.1,1.28
240.6883297,0.29,-0.53,-1.16,1.3
240.6983957,0.15,-0.53,-1.17,1.29
240.7087739,-0.02,-0.6,-1.17,1.31
240.7191157,-0.14,-0.64,-1.15,1.32
240.729363,-0.23,-0.59,-1.08,1.25
240.7392807,-0.25,-0.48,-1.06,1.19
240.7494209,-0.22,-0.32,-1.1,1.16
240.7587819,-0.02,0.02,-1.05,1.05
240.7725518,0.25,0.35,-0.98,1.07
240.778327,0.52,0.66,-0.84,1.18
240.7885678,0.66,0.95,-0.55,1.28
240.7984309,0.73,1.11,-0.24,1.35
240.808918,0.69,1.15,-0.02,1.34
240.819037,0.58,1.18,0.17,1.32
240.8291008,0.5,1.18,0.33,1.32
240.8394589,0.55,1.15,0.52,1.37
240.8496149,0.73,1.02,0.6,1.39
240.859664,0.84,0.89,0.61,1.36
240.875176,0.87,0.82,0.61,1.34
240.8787768,0.77,0.78,0.52,1.21
240.8889778,0.48,0.8,0.46,1.04
240.8994548,0.1,0.87,0.37,0.95
240.9095659,-0.25,0.88,0.35,0.97
240.9201128,-0.47,0.75,0.32,0.94
240.9325588,-0.66,0.6,0.28,0.93
240.9398718,-0.82,0.49,0.21,0.97
240.9499617,-0.94,0.45,0.22,1.06
240.9596949,-0.99,0.43,0.22,1.1
240.9762459,-0.94,0.42,0.11,1.03
240.9809349,-0.8,0.5,-0.14,0.95
240.9893727,-0.64,0.62,-0.42,0.98
240.9994318,-0.47,0.66,-0.67,1.05
241.0096269,-0.32,0.67,-0.82,1.1
241.0205128,-0.16,0.74,-0.74,1.05
241.0322838,0.12,0.8,-0.65,1.03
241.0405049,0.42,0.86,-0.52,1.08
241.0505748,0.67,0.92,-0.18,1.15
241.0606399,0.78,0.96,0.35,1.28
241.077107,0.34,1.02,0.88,1.38
241.080565,-0.39,1.29,0.91,1.62
241.0902119,-0.99,1.43,0.4,1.78
241.1003928,-1.42,1.54,-0.11,2.09
241.1108217,-1.31,1.56,-0.42,2.07
241.1208839,-1,1.4,-0.68,1.84
241.1322908,-0.65,1.21,-0.93,1.65
241.1406817,-0.14,0.74,-1.16,1.38
241.1509778,0.54,-0.1,-1.12,1.24
241.1607358,0.98,-0.96,-0.8,1.58
241.1758938,1.08,-1.55,-0.39,1.92
241.1803129,0.9,-1.88,-0.1,2.08
241.1909049,0.59,-2.01,0.01,2.09
241.200604,0.23,-2.01,-0.05,2.02
241.2110157,-0.12,-1.94,-0.23,1.95
241.2207458,-0.5,-1.74,-0.49,1.87
241.2325058,-0.8,-1.33,-0.83,1.76
241.2387748,-0.78,-1.37,-0.81,1.77
241.2490048,-0.93,-0.74,-1.15,1.65
241.258564,-0.91,-0.12,-1.43,1.69
241.2736888,-0.76,0.45,-1.59,1.81
241.2778087,-0.49,0.8,-1.58,1.83
241.2884579,-0.22,0.95,-1.5,1.78
241.2985728,0.06,0.96,-1.41,1.7
241.3091707,0.32,0.81,-1.22,1.49
241.3187547,0.54,0.56,-0.89,1.18
241.3279009,0.57,0.2,-0.54,0.81
241.337523,0.48,-0.13,-0.36,0.61
241.348321,0.29,-0.38,-0.29,0.55
241.3577757,0.08,-0.6,-0.42,0.73
241.3716688,-0.14,-0.76,-0.62,0.99
241.3782358,-0.31,-0.85,-0.9,1.27
241.3888419,-0.36,-0.83,-1.33,1.6
241.3989129,-0.46,-0.68,-1.74,1.92
241.4094129,-0.48,-0.32,-1.94,2.02
241.4194438,-0.47,0.15,-1.79,1.85
241.4297919,-0.37,0.53,-1.52,1.65
241.4395869,-0.33,0.79,-1.21,1.48
241.4496398,-0.38,1.02,-0.88,1.39
241.4595459,-0.39,1.22,-0.76,1.48
241.4745588,-0.42,1.39,-0.83,1.67
241.4787788,-0.32,1.43,-1.01,1.77
241.4895089,-0.08,1.42,-1.1,1.79
241.4996819,0.16,1.5,-0.89,1.75
241.5090728,0.35,1.59,-0.43,1.68
241.5188658,0.43,1.64,0.16,1.7
241.5288768,0.46,1.73,0.94,2.02
241.5394318,0.62,1.77,1.97,2.71
241.5496519,1.11,1.59,3.02,3.58
241.5601387,1.75,1.31,3.96,4.52
241.5730088,2.23,1.19,4.84,5.46
241.5803847,2.49,1.12,5.46,6.1
241.5899339,2.33,0.95,5.57,6.11
241.5999537,1.89,0.78,5.6,5.96
241.6103559,1.36,0.53,5.32,5.51
241.6234229,0.05,0.29,3.7,3.71
241.6330719,-0.34,0.13,2.63,2.65
241.6433418,-0.57,0.09,1.47,1.57
241.6532807,-0.56,0.06,0.29,0.63
241.6632469,-0.25,-0.07,-0.89,0.92
241.677804,0.41,-0.36,-2.12,2.18
241.6823478,1.2,-0.83,-3.31,3.61
241.6926227,2.01,-1.37,-4.34,4.97
241.7025609,2.6,-1.85,-5.17,6.07
241.7145829,2.77,-2.14,-5.54,6.55
241.7228227,2.59,-2.26,-5.38,6.38
241.7333627,2.43,-2.48,-5.03,6.11
241.7435398,2.21,-2.63,-4.43,5.6
241.7540069,2.13,-2.86,-3.83,5.23
241.7760057,2.2,-3.25,-3.44,5.21
241.776927,2.42,-3.72,-3.6,5.71
241.7830338,2.59,-4.2,-4.34,6.57
241.7928119,1.94,-4.1,-5.35,7.01
241.8034387,1.49,-3.51,-5.76,6.9
241.8155727,1.47,-3.16,-5.72,6.69
241.8235989,1.48,-3.08,-5.27,6.28
241.8337798,1.64,-3.08,-4.66,5.82
241.8438308,1.83,-3.06,-4.08,5.41
241.8542209,2,-3.21,-3.86,5.4
241.875937,2.07,-3.39,-3.92,5.58
241.8769269,2.12,-3.65,-4.25,5.98
241.8834467,2.48,-3.83,-4.58,6.46
241.8936908,2.85,-3.71,-5.06,6.89
241.9038708,2.92,-3.38,-5.37,6.98
241.915061,2.73,-2.96,-4.87,6.31
241.9238648,2.38,-2.88,-3.75,5.29
241.9344928,2.06,-3.24,-2.58,4.62
241.944695,1.89,-3.47,-1.4,4.19
241.9548469,2.3,-3.43,-0.2,4.13
241.9762197,2.9,-2.97,0.61,4.19
241.9771569,3.19,-2.48,0.8,4.11
241.9838929,3.31,-2.14,0.67,3.99
241.9941249,3.06,-1.89,0.03,3.59
242.0043197,2.4,-1.71,-0.92,3.08
242.0148487,1.8,-1.94,-1.29,2.94
242.0243149,1.58,-2.41,-0.67,2.95
242.0349917,2.11,-2.59,0.57,3.38
242.0449929,2.03,-2,1.76,3.34
242.0548918,2.03,-1.51,2.31,3.42
242.0782468,2.41,-1.45,2.14,3.53
242.0803428,2.91,-1.22,2.07,3.77
242.0841918,2.92,-0.69,2.25,3.75
242.0941267,2.55,-0.61,2.99,3.97
242.1043177,1.46,-1,4.97,5.27
242.1148558,-0.18,-1.38,6.79,6.93
242.1251149,-1.45,-1.48,7.34,7.62
242.1356297,-2.23,-1.34,6.73,7.21
242.1456738,-1.62,-1.55,5.5,5.93
242.1556439,0.22,-2.07,4.06,4.56
242.1769128,1.6,-2.45,2.93,4.14
242.1778088,2.31,-2.61,2.54,4.31
242.184629,2.48,-2.81,2.41,4.45
242.1953287,2.4,-3.03,3.23,5.03
242.2051988,1.86,-2.98,4.78,5.93
242.2153497,0.73,-2.91,6.15,6.84
242.2250299,-0.93,-2.6,6.97,7.49
242.2353578,-2.54,-2.06,7.25,7.95
242.2456818,-3.54,-1.43,7.06,8.02
242.2558498,-3.82,-0.5,6.41,7.47
242.2765789,-3.45,0.18,5.07,6.13
242.277493,-2.83,0.46,3.31,4.37
242.2851958,-2.52,0.65,1.71,3.11
242.295002,-2.25,0.77,0.78,2.5
242.3056529,-1.9,0.66,0.19,2.02
242.3155627,-1.38,0.23,-0.36,1.44
242.3261538,-0.95,-0.22,-0.93,1.34
242.3362226,-0.63,-0.59,-1.22,1.49
242.346138,-0.41,-0.92,-1.53,1.83
242.3563018,-0.1,-1.09,-1.68,2
242.377739,0.4,-0.97,-1.34,1.7
242.3787198,1.18,-0.66,-0.6,1.47
242.3855858,1.74,-0.32,0.3,1.79
242.3959699,1.66,-0.03,1.53,2.25
242.4061589,0.92,0.37,3.31,3.45
242.4159698,-0.2,0.61,5.11,5.15
242.4263618,-1.1,0.47,6.34,6.45
242.4366097,-1.66,0.23,7.27,7.46
242.449214,-2,0.16,8.18,8.42
242.45678,-2.05,0.44,8.85,9.09
242.4778309,-1.94,0.89,8.86,9.11
242.4799757,-1.97,1.38,7.87,8.22
242.4860439,-1.81,1.81,6.34,6.83
242.4969869,-1.63,2.2,4.74,5.47
242.5065169,-1.31,2.4,3.49,4.43
242.5166228,-0.93,2.36,2.95,3.89
242.5271029,-0.61,2.2,2.93,3.71
242.5374098,-0.28,2.11,3.01,3.68
242.5490727,0.08,2.1,3.06,3.71
242.5570278,0.43,2.19,3.19,3.89
242.5788758,0.78,2.27,3.45,4.2
242.5813308,1.21,2.26,3.61,4.42
242.5864778,1.55,2.32,3.73,4.65
242.5973408,1.79,2.51,4.2,5.21
242.606936,2.22,2.48,4.78,5.82
242.6169529,2.92,2.16,5.24,6.37
242.6268487,3.54,1.78,5.64,6.89
242.6377468,3.92,1.2,5.69,7.01
242.6501508,4.09,0.59,5.51,6.88
242.657496,4.21,0.11,5.25,6.73
242.6782789,4.42,-0.21,4.85,6.56
242.680553,4.58,-0.48,4.37,6.34
242.6867828,4.6,-0.71,3.92,6.08
242.6969178,4.61,-1.02,3.55,5.9
242.7073359,4.5,-1.28,3.58,5.89
242.7175078,4.56,-1.76,3.69,6.12
242.7280629,5.05,-2.67,3.31,6.6
242.7380137,5.3,-3.54,2.55,6.86
242.748981,5.1,-4.13,1.75,6.79
242.758101,4.61,-4.49,1.01,6.51
242.7802978,3.73,-4.45,0.21,5.81
242.7823019,2.8,-4.02,-0.49,4.92
242.7872438,2.06,-3.29,-0.76,3.95
242.7999399,1.61,-2.41,-0.32,2.91
242.8072488,1.42,-1.57,0.48,2.17
242.8178697,1.49,-1.1,1.11,2.15
242.8277287,1.79,-0.93,1.34,2.42
242.8385289,2.17,-1.03,1.14,2.65
242.8488688,2.46,-1.37,0.57,2.87
242.8585267,2.58,-1.9,-0.27,3.21
242.8694949,2.51,-2.45,-1.3,3.74
242.8779669,2.54,-2.85,-2.37,4.49
242.890286,2.42,-3.12,-3.19,5.07
242.8977048,2.31,-3.26,-3.45,5.27
242.9083767,2.39,-3.23,-2.98,5
242.918314,2.57,-3.04,-2.21,4.55
242.9287598,2.87,-2.79,-1.39,4.23
242.9389818,3,-2.53,-0.99,4.04
242.9490499,2.97,-2.56,-1.24,4.11
242.9588346,2.79,-2.79,-1.98,4.41
242.97085,2.28,-2.93,-2.9,4.71
242.9790998,1.71,-3.06,-3.69,5.08
242.9931459,1.42,-3.18,-3.9,5.22
242.9981899,1.46,-3.07,-3.37,4.78
243.0081239,1.7,-2.77,-2.65,4.19
243.0186658,1.74,-2.39,-2.22,3.69
243.0293758,1.63,-2.03,-2.08,3.33
243.0387819,1.54,-1.74,-2.16,3.17
243.0488749,1.48,-1.54,-2.15,3.03
243.0591679,1.39,-1.41,-2.12,2.9
243.0710478,1.02,-1.25,-1.98,2.55
243.0789189,0.79,-1.21,-1.85,2.34
243.0915289,0.76,-1.25,-1.82,2.33
243.0984979,0.62,-1.08,-1.9,2.27
243.1085896,0.6,-0.85,-1.92,2.18
243.119133,0.98,-0.58,-1.62,1.98
243.131073,1.41,-0.21,-0.89,1.68
243.1391597,1.64,0.14,-0.15,1.65
243.1500916,1.5,0.21,0.26,1.53
243.1600118,1.17,0.09,0.46,1.26
243.1697938,0.81,-0.06,0.26,0.85
243.1908188,0.48,-0.18,-0.26,0.57
243.1916299,0.4,-0.18,-0.72,0.84
243.1992588,0.42,-0.02,-0.87,0.96
243.2088699,0.71,0.29,-0.48,0.9
243.219687,0.97,0.65,0.17,1.17
243.2310379,1.13,0.73,0.76,1.54
243.23979,1.1,0.52,1.22,1.72
243.2499309,0.84,0.32,1.37,1.63
243.2601929,0.37,0.14,1.06,1.13
243.2697577,-0.17,-0.01,0.47,0.49
243.2905228,-0.35,0.04,0.04,0.35
243.2914138,-0.04,0.34,0.23,0.41
243.299634,0.33,0.68,0.82,1.11
243.3094296,0.68,0.77,1.24,1.61
243.3201008,0.68,0.57,1.1,1.41
243.3307047,0.38,0.39,0.34,0.64
243.3400009,-0.17,0.4,-0.55,0.7
243.3508198,-0.66,0.57,-1.05,1.36
243.3606758,-0.83,0.73,-1.01,1.49
243.3703136,-0.75,0.84,-0.46,1.21
243.3898008,-0.55,0.77,0.12,0.95
243.3907778,-0.16,0.43,0.41,0.61
243.3999388,0.21,-0.11,0.34,0.41
243.4103308,0.31,-0.82,0.05,0.87
243.4207618,0.32,-1.6,-0.3,1.65
243.4309039,0.23,-2.25,-0.66,2.35
243.4405427,0.06,-2.71,-1.12,2.93
243.4512658,-0.16,-2.92,-1.55,3.3
243.4610829,-0.29,-2.81,-1.77,3.33
243.4711568,-0.27,-2.45,-1.79,3.04
243.4935226,-0.15,-1.87,-1.54,2.42
243.4944408,-0.12,-1.41,-1.14,1.81
243.5003757,-0.03,-1.24,-0.89,1.52
243.5108867,0.06,-1.08,-0.85,1.37
243.5208209,0.06,-0.77,-1,1.26
243.5310149,-0.15,-0.34,-1.22,1.27
243.5416417,-0.42,0.08,-1.39,1.45
243.5516849,-0.44,0.54,-1.22,1.4
243.5618389,-0.09,0.92,-0.76,1.19
243.571126,0.55,0.9,-0.31,1.09
243.5899308,1.11,0.32,-0.08,1.15
243.5908968,1.29,-0.42,-0.17,1.36
243.6009617,0.9,-0.89,-0.4,1.32
243.6114109,0.23,-1,-0.75,1.27
243.6215348,-0.41,-1.06,-1.3,1.72
243.6315207,-0.85,-0.95,-1.64,2.07
243.6416669,-0.98,-0.65,-1.6,1.98
243.6520777,-0.91,-0.41,-1.34,1.67
243.6623187,-0.6,-0.28,-1.05,1.24
243.6716309,-0.2,-0.28,-0.85,0.91
243.689775,0.14,-0.23,-0.81,0.85
243.6911898,0.34,-0.11,-0.89,0.95
243.7016208,0.42,0.02,-1.06,1.14
243.7117398,0.24,0.17,-1.1,1.13
243.7219088,-0.02,0.47,-0.96,1.06
243.732101,-0.21,0.88,-0.61,1.09
243.7429178,-0.34,1.12,-0.14,1.17
243.7522728,-0.45,1.2,0.26,1.3
243.7624829,-0.55,1.16,0.39,1.34
243.7725997,-0.39,1.04,0.35,1.16
243.7922888,-0.25,0.96,0.38,1.06
243.7931278,-0.12,0.96,0.4,1.04
243.8019278,0.07,1.06,0.45,1.15
243.8120549,0.45,1.13,0.5,1.31
243.8222609,0.77,1.07,0.47,1.39
243.832665,0.85,0.98,0.48,1.38
243.8427138,0.93,1.27,0.5,1.65
243.8531358,0.99,1.5,0.85,1.98
243.8662257,0.82,1.46,1.33,2.13
243.8724637,0.64,1.41,1.82,2.38
243.8896489,0.3,1.26,2.24,2.58
243.8917968,0,1.08,2.35,2.58
243.902236,-0.05,0.79,1.94,2.09
243.9134328,0.13,0.58,1.39,1.51
243.9227679,0.42,0.53,0.8,1.04
243.9329128,0.52,0.64,0.21,0.85
243.9429898,0.53,0.74,-0.18,0.92
243.9533858,0.65,0.73,-0.33,1.03
243.9652576,0.78,0.37,-0.33,0.92
243.9733939,1.01,-0.13,-0.17,1.03
243.9920418,1.24,-0.62,0.12,1.39
243.992991,1.37,-1.05,0.34,1.75
244.002739,1.37,-1.39,0.42,1.99
244.0138049,1.41,-1.57,0.52,2.17
244.023356,1.56,-1.65,0.65,2.36
244.0337188,1.74,-1.67,0.72,2.51
244.0437217,1.94,-1.68,0.57,2.62
244.0539808,2.06,-1.64,0.21,2.64
244.0653098,1.96,-1.52,-0.01,2.48
244.0738177,1.84,-1.45,-0.18,2.34
244.09056,1.67,-1.31,-0.31,2.14
244.0929158,1.49,-1.1,-0.34,1.88
244.1031499,1.22,-0.98,-0.33,1.59
244.1142228,1.02,-1.01,-0.22,1.45
244.1235518,1.01,-1.01,-0.09,1.43
244.1337957,1.02,-1.02,0,1.44
244.1436539,1.08,-1.09,0,1.53
244.1543589,1.3,-0.99,-0.13,1.63
244.1642637,1.6,-0.83,-0.26,1.82
244.1736608,1.83,-0.69,-0.44,2
244.1924238,1.8,-0.49,-0.64,1.97
244.1933699,1.66,-0.39,-0.78,1.87
244.2040658,1.44,-0.4,-0.81,1.69
244.2143338,1.17,-0.39,-0.68,1.4
244.224185,0.9,-0.21,-0.43,1.01
244.2343128,0.7,0.13,-0.14,0.72
244.2446017,0.65,0.46,0.05,0.79
244.2548308,0.58,0.44,0.07,0.73
244.2652109,0.46,0.24,-0.01,0.51
244.2746367,0.47,0.12,-0.29,0.56
244.2919097,0.69,0.11,-0.45,0.83
244.2937527,0.87,0.28,-0.32,0.96
244.3040457,0.84,0.68,0.12,1.08
244.3140128,0.7,0.93,0.63,1.32
244.3243847,0.5,0.93,0.96,1.42
244.334528,0.27,0.79,1.17,1.43
244.345047,0.09,0.58,1.11,1.25
244.355289,0.11,0.43,0.93,1.03
244.3651919,0.32,0.25,0.61,0.73
244.3753169,0.58,-0.1,0.08,0.59
244.3915808,0.73,-0.27,-0.24,0.81
244.3942857,0.6,-0.23,-0.16,0.66
244.4044728,0.29,-0.13,0.12,0.33
244.415164,0.01,-0.12,0.28,0.3
244.4248378,-0.19,-0.13,0.35,0.41
244.4357138,-0.28,-0.06,0.42,0.5
244.4459949,-0.27,0.07,0.53,0.59
244.4557288,-0.26,0.14,0.63,0.69
244.4655399,-0.29,0.06,0.69,0.75
244.4755588,-0.45,0,0.7,0.83
244.4892468,-1.18,0.16,0.63,1.34
244.4949107,-2.11,0.51,0.52,2.23
244.5049498,-2.78,0.92,0.52,2.97
244.515255,-3.09,1.12,0.53,3.32
244.52525,-2.95,0.76,0.35,3.06
244.5352578,-2.52,0.19,0.05,2.52
244.5483449,-2.1,0.02,-0.14,2.1
244.5555029,-1.68,0.29,-0.14,1.71
244.5660229,-1.29,0.6,-0.02,1.42
244.5758598,-0.92,0.57,0.04,1.08
244.5893948,-0.57,0.37,0.33,0.75
244.5962958,-0.25,-0.05,0.68,0.72
244.6056447,-0.04,-0.73,0.86,1.12
244.6154919,-0.04,-1.3,0.86,1.55
244.6261549,-0.28,-1.67,0.71,1.83
244.6363518,-0.71,-1.81,0.49,2
244.64851,-1.14,-1.8,0.21,2.14
244.6562848,-1.43,-1.78,-0.17,2.28
244.6666327,-1.58,-1.68,-0.53,2.36
244.6761549,-1.61,-1.51,-0.9,2.38
244.6896818,-1.58,-1.19,-1.13,2.27
244.6966457,-1.64,-0.75,-1.19,2.16
244.7057147,-1.7,-0.38,-1.15,2.08
244.7162428,-1.67,-0.08,-1.02,1.95
244.7260509,-1.59,0.23,-0.87,1.82
244.7367949,-1.31,0.47,-0.74,1.57
244.7483959,-0.88,0.55,-0.73,1.26
244.7569537,-0.53,0.58,-0.79,1.11
244.7670128,-0.32,0.66,-0.82,1.1
244.7771549,-0.16,0.56,-0.89,1.06
244.7902398,-0.12,0.27,-0.96,1
244.7962999,-0.14,-0.08,-1.02,1.03
244.8065999,-0.13,-0.35,-1.06,1.12
244.8166518,-0.13,-0.48,-1.04,1.15
244.8271489,-0.17,-0.42,-0.91,1.01
244.8371687,-0.29,-0.38,-0.79,0.92
244.8481789,-0.34,-0.38,-0.71,0.87
244.857317,-0.31,-0.35,-0.69,0.83
244.8675838,-0.3,-0.3,-0.71,0.82
244.8777368,-0.34,-0.21,-0.54,0.67
244.8907299,-0.42,-0.19,-0.39,0.6
244.8966558,-0.51,-0.19,-0.37,0.65
244.9064589,-0.72,0,-0.37,0.8
244.9172468,-1.03,0.24,-0.45,1.14
244.9269958,-1.4,0.41,-0.59,1.57
244.9370708,-1.53,0.66,-0.59,1.76
244.9480999,-1.26,1.04,-0.21,1.64
244.9579709,-0.85,1.26,0.29,1.54
244.9678788,-0.52,1.25,0.61,1.48
244.9778647,-0.27,1.08,0.88,1.41
244.9908237,-0.31,1.11,1.09,1.58
244.9970889,-0.45,1.25,1.16,1.76
245.0070739,-0.51,1.21,1.12,1.72
245.0173209,-0.54,1.22,1.07,1.71
245.0276537,-0.55,1.37,1.14,1.86
245.0378547,-0.37,1.46,1.23,1.94
245.0479858,-0.12,1.45,1.29,1.94
245.0581448,0.04,1.39,1.37,1.95
245.0684729,0.15,1.32,1.42,1.94
245.0782638,0.13,1.24,1.46,1.91
245.0906978,0.07,1.08,1.47,1.82
245.097713,0.08,0.82,1.48,1.69
245.1074069,0.2,0.59,1.44,1.56
245.1181438,0.33,0.42,1.3,1.4
245.1277668,0.27,0.47,1.08,1.2
245.1382828,0.02,0.65,0.84,1.06
245.1485729,0.02,0.57,0.34,0.66
245.1584969,0.2,0.38,-0.16,0.45
245.168623,0.24,0.46,-0.33,0.61
245.1790009,0.11,0.69,-0.27,0.74
245.1918628,0,0.78,-0.27,0.82
245.1982758,0.01,0.62,-0.44,0.76
245.2081969,0.24,0.34,-0.6,0.73
245.2185988,0.61,0.12,-0.49,0.79
245.2309017,0.95,-0.2,-0.34,1.02
245.2357008,0.88,-0.22,-0.33,0.96
245.2475119,1.07,-0.62,-0.32,1.27
245.2562447,1.25,-0.98,-0.37,1.63
245.2664347,1.35,-1.13,-0.46,1.81
245.276227,1.42,-1.15,-0.46,1.88
245.2890968,1.51,-1.2,-0.33,1.95
245.2965958,1.55,-1.35,-0.17,2.06
245.3056889,1.46,-1.48,-0.06,2.07
245.3162758,1.38,-1.44,0.02,1.99
245.325645,1.35,-1.3,0.02,1.87
245.3355088,1.37,-1.25,-0.11,1.85
245.3459859,1.35,-1.28,-0.38,1.89
245.3560538,1.23,-1.2,-0.58,1.81
245.3657708,1.04,-0.96,-0.75,1.6
245.3757648,0.86,-0.78,-0.9,1.46
245.3886409,0.87,-0.79,-1,1.54
245.3967338,0.92,-0.83,-1.04,1.61
245.4066248,0.9,-0.92,-0.97,1.61
245.4167738,0.85,-0.95,-0.84,1.52
245.4273167,0.75,-1,-0.77,1.46
245.43712,0.73,-1.05,-0.77,1.49
245.4476008,0.67,-1.08,-0.75,1.47
245.4573169,0.57,-1.06,-0.59,1.34
245.4675138,0.44,-0.91,-0.28,1.04
245.4776819,0.33,-0.8,0.01,0.86
245.4898589,0.19,-0.76,0.17,0.8
245.4969258,0.06,-0.68,0.22,0.71
245.5068119,0.04,-0.47,0.34,0.58
245.5166469,0.08,-0.23,0.4,0.46
245.5265949,0.1,0,0.39,0.4
245.5374427,0.19,0.18,0.33,0.42
245.5480428,0.37,0.41,0.31,0.63
245.5575819,0.57,0.73,0.33,0.98
245.5681698,0.8,1.03,0.4,1.36
245.5778279,1.01,1.26,0.51,1.69
245.5893159,1.04,1.36,0.66,1.83
245.5970778,0.93,1.34,0.77,1.8
245.6075349,0.71,1.24,0.78,1.62
245.6216428,0.27,0.98,0.66,1.21
245.6314077,0,0.79,0.47,0.91
245.6420758,-0.22,0.72,0.34,0.82
245.6522589,-0.46,0.7,0.2,0.86
245.6646378,-0.66,0.68,0.06,0.94
245.6724818,-0.75,0.67,-0.04,1
245.6938987,-0.89,0.71,-0.05,1.13
245.6960807,-1.03,0.69,0.02,1.23
245.7014647,-1.11,0.61,0.17,1.27
245.7126648,-1.05,0.52,0.39,1.23
245.7217228,-0.86,0.38,0.62,1.12
245.7320199,-0.72,0.23,0.75,1.06
245.7423677,-0.73,0.31,0.82,1.14
245.7526526,-0.95,0.67,0.77,1.39
245.7647867,-1.03,0.77,0.35,1.33
245.7728677,-0.94,0.69,-0.23,1.18
245.7939079,-1.03,0.74,-0.69,1.44
245.7961419,-1.27,0.96,-1.04,1.9
245.8018417,-1.29,1.08,-1.37,2.16
245.8124788,-1.14,1.05,-1.55,2.19
245.8223999,-0.84,0.91,-1.37,1.84
245.8323898,-0.3,0.48,-0.8,0.98
245.8425407,0.09,-0.17,-0.13,0.23
245.8528259,0.38,-0.89,0.44,1.06
245.8646839,0.54,-1.69,0.79,1.94
245.8731027,0.46,-2.34,0.94,2.56
245.8937497,0.16,-2.77,0.84,2.89
245.8957567,-0.26,-3.03,0.53,3.08
245.9023778,-0.79,-3.02,0.12,3.12
245.9134717,-1.28,-2.83,-0.28,3.11
245.9227428,-1.43,-2.46,-0.61,2.91
245.9329689,-1.48,-1.97,-0.77,2.58
245.9429569,-1.51,-1.42,-0.82,2.22
245.9529157,-1.44,-0.86,-0.85,1.88
245.9645188,-1.15,-0.32,-0.86,1.47
245.9737208,-0.75,0.02,-0.88,1.15
245.9947567,-0.42,0.24,-0.9,1.02
245.9971547,-0.17,0.4,-0.76,0.87
246.0025358,0.07,0.44,-0.54,0.7
246.0171788,0.2,0.33,-0.34,0.51
246.0232687,0.31,0.08,-0.14,0.34
246.0342388,0.43,-0.17,0.13,0.48
246.044138,0.37,-0.47,0.31,0.67
246.0540137,0.11,-0.81,0.34,0.88
246.0648508,-0.3,-1.03,0.23,1.09
246.0742769,-0.66,-1.12,0.13,1.3
246.0958948,-0.9,-1.1,0.12,1.42
246.0978768,-1.01,-0.99,0.1,1.41
246.1033008,-0.93,-0.88,0,1.28
246.1165457,-0.69,-0.7,-0.06,0.98
246.1236348,-0.52,-0.25,0.07,0.58
246.1337247,-0.36,0.21,0.44,0.6
246.1440187,-0.16,0.36,0.71,0.81
246.1542568,-0.13,0.27,0.76,0.81
246.165,-0.41,0.24,0.65,0.8
246.1743898,-0.81,0.28,0.49,0.98
246.1855838,-1.07,0.32,0.23,1.14
246.1946039,-1.2,0.37,-0.11,1.26
246.2078757,-1.23,0.47,-0.39,1.37
246.213728,-1.2,0.68,-0.53,1.47
246.2235999,-1.09,0.97,-0.51,1.54
246.2342498,-0.91,1.2,-0.35,1.54
246.2443447,-0.68,1.32,-0.08,1.48
246.2549319,-0.43,1.43,0.33,1.52
246.2648938,-0.27,1.53,0.91,1.8
246.274858,-0.23,1.47,1.31,1.98
246.2859318,-0.24,1.3,1.49,1.99
246.2954297,-0.33,1.17,1.47,1.9
246.3093028,-0.46,1.19,1.32,1.83
246.3142798,-0.53,1.24,1.12,1.75
246.3245959,-0.51,1.27,1,1.69
246.3345857,-0.46,1.26,1.03,1.69
246.3448887,-0.37,1.15,1.08,1.62
246.3554897,-0.32,0.96,1.06,1.46
246.3653626,-0.29,0.74,1,1.27
246.3751018,-0.23,0.62,1,1.19
246.3849678,-0.22,0.5,0.98,1.12
246.3953247,-0.4,0.31,0.8,0.94
246.4093528,-0.72,0.2,0.52,0.91
246.4150789,-1.04,0.32,0.28,1.12
246.4251578,-1.27,0.46,0.11,1.35
246.4352169,-1.4,0.39,-0.24,1.47
246.4478669,-1.53,0.28,-0.69,1.7
246.4558229,-1.61,0.19,-1.17,1.99
246.4658127,-1.59,0.11,-1.57,2.23
246.4755387,-1.4,-0.13,-1.84,2.31
246.4854259,-1,-0.56,-1.82,2.15
246.507319,-0.53,-1.12,-1.57,2
246.5082927,-0.2,-1.62,-1.23,2.04
246.5150719,-0.01,-1.99,-0.88,2.17
246.5255609,0.1,-2.24,-0.56,2.31
246.5354719,0.13,-2.38,-0.4,2.41
246.5474257,0.19,-2.43,-0.39,2.46
246.5562508,0.35,-2.33,-0.51,2.41
246.5659227,0.39,-2.13,-0.77,2.29
246.5757658,0.38,-1.75,-1.06,2.08
246.5856609,0.38,-1.13,-1.2,1.69
246.6055717,0.29,-0.55,-1.28,1.42
246.6065197,0.18,-0.15,-1.36,1.38
246.615685,0.11,0.15,-1.34,1.35
246.6261318,0.15,0.29,-1.35,1.38
246.6357918,0.33,0.29,-1.19,1.26
246.6477408,0.43,0.18,-0.91,1.02
246.6566687,0.41,0.05,-0.5,0.64
246.6665568,0.29,-0.06,-0.09,0.3
246.6765478,0.12,-0.25,0.22,0.35
246.6861498,-0.05,-0.39,0.47,0.61
246.7072299,-0.24,-0.51,0.6,0.82
246.7081389,-0.38,-0.58,0.71,0.99
246.7157617,-0.51,-0.58,0.79,1.1
246.7261748,-0.59,-0.54,0.86,1.17
246.7364829,-0.57,-0.38,0.98,1.19
246.7470338,-0.48,-0.29,1.03,1.17
246.7565479,-0.42,-0.14,1.01,1.1
246.7665467,-0.43,0.18,0.99,1.09
246.7768338,-0.44,0.48,1,1.19
246.7866929,-0.42,0.73,0.99,1.29
246.8076777,-0.39,0.91,1.05,1.44
246.808435,-0.3,0.95,1.05,1.44
246.8163967,-0.26,0.89,0.97,1.34
246.82689,-0.3,0.82,0.91,1.26
246.8370829,-0.28,0.77,0.93,1.23
246.8471308,-0.32,0.75,0.98,1.27
246.8568969,-0.4,0.66,1.09,1.33
246.8674097,-0.47,0.54,1.15,1.35
246.8776178,-0.5,0.43,1.2,1.36
246.887126,-0.56,0.34,1.21,1.37
246.9056077,-0.63,0.31,1.17,1.36
246.9065199,-0.6,0.33,1.23,1.4
246.916739,-0.51,0.32,1.27,1.4
246.9276557,-0.49,0.24,1.18,1.3
246.9374328,-0.51,0.18,1.02,1.15
246.9474998,-0.52,0.16,0.81,0.97
246.9577668,-0.53,0.15,0.52,0.75
246.9681408,-0.5,-0.01,0.16,0.52
246.9778888,-0.45,-0.26,-0.25,0.57
246.9875088,-0.38,-0.43,-0.62,0.84
247.0075006,-0.4,-0.47,-0.83,1.03
247.0084009,-0.45,-0.48,-0.92,1.13
247.0175619,-0.79,-0.21,-0.71,1.08
247.0276809,-1.52,0.38,-0.39,1.61
247.0378709,-2.01,0.6,-0.48,2.15
247.0480657,-2.04,0.33,-0.89,2.25
247.0582929,-1.93,0.03,-1.32,2.33
247.068645,-1.85,0.11,-1.47,2.36
247.0808768,-1.63,0.4,-1.33,2.14
247.0879068,-1.11,0.43,-1.06,1.59
247.1064718,-0.39,0.16,-0.58,0.71
247.1074169,0.32,-0.34,0.06,0.47
247.1176298,0.71,-0.85,0.62,1.26
247.1297288,0.74,-1.28,0.97,1.76
247.1382337,0.48,-1.59,1.15,2.02
247.1482809,0.07,-1.82,1.05,2.1
247.1589718,-0.44,-1.92,0.78,2.11
247.1687918,-0.95,-1.82,0.38,2.08
247.1809139,-1.34,-1.6,-0.08,2.08
247.1890039,-1.54,-1.24,-0.45,2.02
247.2073948,-1.62,-0.79,-0.75,1.95
247.2083488,-1.57,-0.36,-0.91,1.85
247.2181728,-1.31,-0.04,-0.92,1.6
247.2297707,-0.96,0.15,-0.8,1.25
247.2385769,-0.52,0.23,-0.49,0.75
247.2493477,-0.08,0.09,-0.21,0.24
247.259367,0.17,-0.23,-0.03,0.28
247.2694769,0.21,-0.53,0.06,0.57
247.2808309,0.09,-0.74,0.08,0.74
247.288744,-0.16,-0.93,0.01,0.94
247.3056338,-0.41,-1.13,-0.17,1.21
247.3084517,-0.59,-1.25,-0.32,1.41
247.3192077,-0.75,-1.26,-0.48,1.54
247.3297918,-0.96,-1.2,-0.63,1.66
247.3390129,-1.06,-1.08,-0.77,1.69
247.349669,-0.93,-0.8,-0.73,1.42
247.3596339,-0.78,-0.45,-0.58,1.07
247.3697908,-0.75,-0.25,-0.49,0.93
247.3811288,-0.84,-0.07,-0.49,0.97
247.3893199,-0.93,0.13,-0.5,1.06
247.4052577,-0.95,0.34,-0.51,1.13
247.4088988,-0.85,0.52,-0.52,1.12
247.4195337,-0.72,0.7,-0.39,1.07
247.4297557,-0.49,0.9,-0.05,1.02
247.439642,-0.24,0.98,0.26,1.04
247.4495878,-0.06,1.07,0.46,1.16
247.4601517,0.03,1.23,0.62,1.37
247.4702718,0.13,1.36,0.77,1.56
247.481267,0.31,1.38,0.96,1.7
247.4901128,0.43,1.29,1.12,1.76
247.5071788,0.41,1.2,1.31,1.82
247.5095878,0.35,1.16,1.5,1.92
247.5196028,0.32,1.17,1.71,2.09
247.5299518,0.44,1.07,1.86,2.19
247.5401077,0.4,0.9,1.83,2.07
247.5505619,0.17,0.8,1.63,1.82
247.5602317,-0.11,0.75,1.41,1.6
247.5703108,-0.35,0.75,1.23,1.48
247.5808258,-0.44,0.73,1.1,1.39
247.5901048,-0.36,0.62,1.03,1.25
247.6075609,-0.3,0.52,0.96,1.13
247.6098688,-0.45,0.65,0.97,1.25
247.6199958,-0.71,0.95,1.02,1.56
247.630549,-0.57,1.02,0.91,1.48
247.6405797,-0.16,0.8,0.72,1.08
247.6510928,0.2,0.68,0.65,0.96
247.6608777,0.47,0.54,0.55,0.9
247.6710079,0.57,0.39,0.37,0.78
247.6810539,0.56,0.13,0.1,0.58
247.6912537,0.57,-0.32,-0.23,0.69
247.7075808,0.6,-0.88,-0.47,1.16
247.7102509,0.62,-1.4,-0.54,1.62
247.7204218,0.7,-1.83,-0.52,2.02
247.7305269,0.78,-2.11,-0.49,2.3
247.7408347,0.84,-2.17,-0.41,2.36
247.7509537,0.96,-2.02,-0.39,2.27
247.7615678,1.16,-1.81,-0.42,2.19
247.7716649,1.43,-1.65,-0.62,2.26
247.7818847,1.57,-1.42,-0.83,2.27
247.7914119,1.45,-1.09,-1.08,2.11
247.8074818,1.14,-0.82,-1.33,1.93
247.8120508,0.79,-0.57,-1.53,1.81
247.8208418,0.46,-0.34,-1.57,1.67
247.8315229,0.21,-0.2,-1.52,1.54
247.84127,0.14,-0.18,-1.44,1.45
247.8517027,0.18,-0.18,-1.31,1.33
247.8639269,0.21,-0.19,-1.16,1.19
247.8720288,0.29,-0.31,-1.04,1.12
247.8820379,0.43,-0.47,-0.89,1.09
247.8919539,0.5,-0.63,-0.6,1
247.907496,0.57,-0.72,-0.2,0.93
247.9119387,0.63,-0.79,0.28,1.04
247.9211049,0.63,-0.89,0.74,1.31
247.9316819,0.61,-1,1.08,1.59
247.94171,0.46,-1.02,1.27,1.69
247.9524639,0.28,-0.95,1.26,1.6
247.9642599,0.11,-0.8,1.1,1.36
247.9722388,0.02,-0.61,0.79,0.99
247.9824388,-0.01,-0.33,0.39,0.51
247.9923329,0.01,0.01,0.14,0.14
248.007237,0.09,0.32,0.02,0.33
248.0119658,0.15,0.55,0.03,0.57
248.022368,0.19,0.65,0.15,0.69
248.0322247,0.22,0.63,0.31,0.73
248.0420609,0.2,0.54,0.38,0.68
248.0524449,0.17,0.48,0.42,0.66
248.0638618,0.07,0.47,0.43,0.64
248.07301,-0.08,0.44,0.35,0.56
248.0831208,-0.21,0.47,0.31,0.6
248.0929799,-0.27,0.42,0.22,0.54
248.1065168,-0.22,0.29,0.03,0.36
248.1120667,-0.31,0.29,-0.2,0.46
248.1222098,-0.55,0.35,-0.4,0.76
248.1326098,-0.78,0.51,-0.61,1.11
248.1428027,-0.94,0.77,-0.7,1.4
248.1527548,-1.06,1,-0.64,1.59
248.1642647,-1.06,1.07,-0.43,1.56
248.1732528,-0.94,1.01,-0.17,1.39
248.1836078,-0.77,0.81,0.1,1.12
248.1934478,-0.62,0.65,0.42,0.99
248.2070417,-0.87,0.78,0.82,1.42
248.2127028,-1.52,1.38,1.2,2.37
248.2226729,-1.75,1.58,0.95,2.54
248.233315,-1.32,1.13,0.2,1.74
248.2429628,-1.12,1.01,-0.33,1.54
248.2537048,-1.34,1.46,-0.39,2.01
248.2638798,-1.42,1.73,-0.2,2.24
248.2737107,-0.99,1.23,0.02,1.57
248.2838917,-0.44,0.36,0.22,0.6
248.2938299,-0.09,-0.36,0.5,0.62
248.3067517,0.16,-1.07,0.66,1.26
248.3132758,0.23,-1.65,0.79,1.84
248.3231778,0.21,-1.92,0.98,2.16
248.3335919,0.05,-1.96,1.17,2.28
248.3436348,-0.16,-1.97,1.17,2.29
248.3542929,-0.36,-1.96,0.92,2.19
248.3641918,-0.55,-2,0.44,2.12
248.3742747,-0.85,-2.04,-0.08,2.21
248.384192,-1.19,-2.01,-0.51,2.39
248.3940828,-1.51,-1.74,-0.71,2.41
248.4081497,-1.69,-1.34,-0.84,2.31
248.4136128,-1.73,-1.01,-0.91,2.2
248.4238567,-1.58,-0.82,-1,2.04
248.4339147,-1.36,-0.63,-1.01,1.8
248.4442859,-1.07,-0.45,-0.97,1.51
248.4541178,-0.8,-0.33,-0.77,1.15
248.464664,-0.6,-0.36,-0.54,0.88
248.4748487,-0.47,-0.54,-0.42,0.83
248.4847059,-0.48,-0.77,-0.39,0.98
248.507617,-0.59,-0.98,-0.44,1.22
248.5085149,-0.81,-1.1,-0.59,1.48
248.514082,-1.03,-1.06,-0.66,1.61
248.5242379,-1.24,-0.91,-0.69,1.68
248.5348198,-1.41,-0.72,-0.7,1.73
248.5469809,-1.53,-0.5,-0.67,1.74
248.5543928,-1.59,-0.26,-0.68,1.74
248.5642657,-1.59,-0.11,-0.64,1.71
248.5752048,-1.69,0.04,-0.6,1.79
248.5846577,-1.68,0.24,-0.42,1.74
248.6080549,-1.46,0.41,-0.14,1.52
248.609129,-1.2,0.39,0.05,1.26
248.6145089,-1.09,0.32,0.13,1.14
248.6241789,-0.96,0.39,0.18,1.05
248.635211,-0.8,0.62,0.26,1.04
248.6458728,-0.52,0.79,0.42,1.03
248.6556058,-0.31,0.85,0.53,1.04
248.6654639,-0.25,0.84,0.59,1.05
248.6759319,-0.23,0.96,0.84,1.29
248.684927,-0.23,1.17,1.28,1.74
248.7074618,-0.15,1.37,1.77,2.24
248.7083769,-0.06,1.39,2.13,2.54
248.7147117,-0.06,1.22,2.2,2.51
248.7256038,-0.12,1.08,2.06,2.32
248.7351928,-0.15,1.01,1.82,2.08
248.7459517,-0.2,1.02,1.55,1.86
248.7558179,-0.17,0.99,1.3,1.64
248.7659218,-0.06,0.96,1.12,1.47
248.7759209,0.02,0.89,1.07,1.39
248.7859008,0.01,0.74,1.04,1.27
248.8084159,-0.15,0.64,1.02,1.21
248.8093519,-0.43,0.73,0.97,1.28
248.815136,-0.74,1.06,0.87,1.55
248.8250747,-0.9,1.27,0.58,1.66
248.8357208,-0.62,1.1,0.14,1.27
248.846365,-0.24,0.87,-0.33,0.96
248.8564758,-0.07,0.72,-0.83,1.1
248.8664007,-0.04,0.7,-1.28,1.45
248.8764019,0.01,0.62,-1.59,1.7
248.8866198,0.19,0.28,-1.66,1.69
248.9082139,0.47,-0.37,-1.38,1.5
248.9091418,0.7,-1.05,-0.84,1.51
248.9157028,0.78,-1.56,-0.28,1.76
248.9257019,0.75,-1.99,0.18,2.13
248.9361486,0.63,-2.23,0.49,2.36
248.9465568,0.49,-2.22,0.57,2.34
248.9566698,0.39,-2.19,0.31,2.24
248.9668207,0.4,-2.04,-0.19,2.08
248.9766769,0.38,-1.68,-0.62,1.83
248.9870367,0.51,-1.29,-0.97,1.69
249.0079627,0.57,-0.9,-1.2,1.6
249.008884,0.47,-0.49,-1.21,1.38
249.0162249,0.33,-0.17,-1.15,1.2
249.025991,0.3,0,-1.09,1.13
249.036727,0.28,0.07,-1.09,1.12
249.0469809,0.3,-0.06,-1.11,1.15
249.0572619,0.33,-0.25,-1.09,1.16
249.0667577,0.29,-0.29,-1.01,1.09
249.0772288,0.28,-0.34,-0.91,1.01
249.087204,0.35,-0.46,-0.72,0.92
249.1106358,0.37,-0.53,-0.39,0.75
249.1126299,0.3,-0.56,0,0.63
249.1163869,0.1,-0.59,0.34,0.68
249.1264319,-0.1,-0.63,0.61,0.88
249.1369028,-0.3,-0.63,0.74,1.01
249.1472778,-0.36,-0.49,0.82,1.02
249.1575818,-0.31,-0.32,0.8,0.91
249.1677418,-0.09,-0.13,0.71,0.72
249.1799107,0.16,0.07,0.6,0.62
249.1875608,0.35,0.28,0.51,0.67
249.2105398,0.36,0.51,0.49,0.79
249.2124689,0.27,0.66,0.49,0.86
249.2167068,0.15,0.7,0.48,0.86
249.232512,0.06,0.67,0.46,0.81
249.23803,0,0.72,0.42,0.83
249.2437088,0,0.68,0.44,0.8
249.2536998,0.09,0.75,0.37,0.84
249.2638118,0.32,0.78,0.31,0.89
249.2741437,0.5,0.74,0.23,0.92
249.283577,0.6,0.88,0.23,1.08
249.3065479,0.66,1.13,0.27,1.33
249.3075767,0.57,1.29,0.27,1.43
249.3138108,0.33,1.31,0.26,1.37
249.3234277,0.06,1.2,0.38,1.26
249.3331468,-0.17,0.97,0.62,1.16
249.3442049,-0.48,0.73,0.86,1.22
249.3532419,-0.91,0.54,1,1.45
249.3633099,-1.2,0.44,1.01,1.62
249.3738608,-1.34,0.36,0.91,1.65
249.3841348,-1.46,0.32,0.75,1.67
249.4046969,-1.77,0.59,0.7,1.99
249.4055748,-1.82,0.76,0.52,2.03
249.414434,-1.58,0.54,0.22,1.68
249.4244428,-1.44,0.41,0.05,1.49
249.4351468,-1.33,0.55,0.1,1.44
249.4466968,-1.08,0.69,0.17,1.29
249.4552708,-0.61,0.54,0.2,0.83
249.4650998,-0.08,0.15,0.26,0.31
249.4749758,0.24,-0.41,0.42,0.63
249.4853268,0.39,-1.01,0.62,1.24
249.5065718,0.41,-1.57,0.84,1.82
249.507514,0.29,-2.05,0.98,2.29
249.51472,0.02,-2.4,0.98,2.59
249.5247908,-0.33,-2.57,0.77,2.7
249.5347466,-0.74,-2.63,0.26,2.74
249.5444798,-1.12,-2.54,-0.36,2.79
249.5544379,-1.41,-2.27,-0.95,2.83
249.5645568,-1.63,-1.83,-1.36,2.8
249.5749059,-1.73,-1.31,-1.57,2.67
249.5856609,-1.66,-0.79,-1.54,2.39
249.6069779,-1.4,-0.43,-1.39,2.01
249.6079118,-0.97,-0.24,-1.24,1.59
249.6148787,-0.56,-0.17,-0.96,1.12
249.6254368,-0.19,-0.18,-0.6,0.65
249.6353498,0.06,-0.3,-0.31,0.43
249.6454768,0.2,-0.5,-0.15,0.55
249.6599998,0.01,-0.98,-0.27,1.01
249.6698549,-0.21,-1.09,-0.48,1.2
249.680316,-0.39,-1.15,-0.6,1.35
249.6896808,-0.55,-1.13,-0.6,1.39
249.7021599,-0.72,-0.99,-0.56,1.34
249.7100408,-0.94,-0.82,-0.51,1.34
249.7235827,-1.16,-0.66,-0.49,1.42
249.7293367,-1.31,-0.49,-0.43,1.46
249.7397618,-1.4,-0.28,-0.35,1.47
249.7498338,-1.37,-0.13,-0.2,1.39
249.7597628,-1.22,0,-0.06,1.22
249.7702758,-1.1,0.16,0.07,1.11
249.7801988,-1.05,0.35,0.19,1.12
249.7905319,-1.02,0.62,0.3,1.23
249.8005388,-1,0.75,0.3,1.28
249.8104699,-1.02,0.78,0.32,1.32
249.8229337,-1.06,0.77,0.43,1.37
249.829649,-1.03,0.77,0.62,1.42
249.8396068,-0.84,0.83,0.91,1.49
249.8503809,-0.61,1.01,1.24,1.71
249.8603497,-0.39,1.16,1.46,1.9
249.8708158,-0.21,1.23,1.61,2.03
249.8809609,-0.09,1.27,1.72,2.13
249.8910358,0.01,1.35,1.84,2.28
249.9009318,0.05,1.38,1.89,2.34
249.9214218,0.1,1.36,1.83,2.28
249.9223979,0.2,1.34,1.74,2.2
249.9303288,0.22,1.32,1.7,2.16
249.9409099,0.23,1.31,1.65,2.11
249.950758,0.34,1.27,1.6,2.07
249.9623847,0.54,1.22,1.6,2.08
249.9710159,0.75,1.1,1.69,2.15
249.9813089,0.83,0.91,1.76,2.14
249.9912388,0.66,0.89,1.73,2.05
250.0016928,0.53,0.81,1.37,1.67
250.0202937,0.58,0.47,0.83,1.11
250.0212958,0.55,0.19,0.34,0.67
250.0306818,0.46,0.06,-0.07,0.46
250.0404978,0.43,-0.07,-0.41,0.59
250.051044,0.56,-0.28,-0.68,0.92
250.0624509,0.83,-0.54,-0.85,1.3
250.0718517,1.08,-0.79,-0.92,1.62
250.0818908,1.31,-0.96,-0.86,1.83
250.091733,1.51,-1.1,-0.7,1.99
250.1012359,1.67,-1.27,-0.52,2.16
250.1223598,1.76,-1.38,-0.31,2.25
250.1232908,1.79,-1.47,-0.14,2.32
250.1309237,1.79,-1.53,-0.09,2.35
250.1415567,1.72,-1.54,-0.22,2.31
250.1516457,1.65,-1.51,-0.49,2.28
250.1621799,1.59,-1.47,-0.78,2.3
250.1719978,1.57,-1.42,-1.06,2.36
250.1822808,1.54,-1.39,-1.33,2.46
250.1922598,1.48,-1.27,-1.44,2.42
250.2017736,1.37,-1.05,-1.37,2.2
250.2225008,1.32,-1,-1.26,2.08
250.2233829,1.3,-1.13,-1.2,2.09
250.2315478,1.29,-1.25,-1.1,2.1
250.2418237,1.2,-1.29,-1,2.02
250.2520938,1.15,-1.26,-0.92,1.93
250.2625968,1.17,-1.23,-0.88,1.91
250.2725787,1.21,-1.19,-0.83,1.88
250.2826028,1.2,-1.11,-0.76,1.8
250.2925198,1.06,-1.01,-0.69,1.61
250.3026998,0.89,-0.95,-0.62,1.44
250.3226068,0.74,-0.89,-0.61,1.3
250.3235917,0.66,-0.79,-0.55,1.16
250.3319497,0.68,-0.64,-0.49,1.05
250.3424978,0.71,-0.48,-0.41,0.95
250.352582,0.76,-0.32,-0.31,0.88
250.3625548,0.75,-0.19,-0.19,0.79
250.37287,0.81,-0.1,-0.07,0.81
250.3831267,0.92,-0.07,0.1,0.92
250.3930058,0.97,0.05,0.34,1.02
250.4026117,0.99,0.23,0.58,1.17
250.4213598,1.03,0.34,0.72,1.3
250.4224229,1.07,0.38,0.78,1.37
250.4325979,1,0.39,0.67,1.26
250.4421818,0.84,0.33,0.48,1.02
250.4530039,0.55,0.34,0.25,0.69
250.4629517,0.25,0.39,0.07,0.46
250.4732947,-0.04,0.37,-0.1,0.38
250.4829428,-0.3,0.36,-0.18,0.5
250.493516,-0.52,0.38,-0.15,0.66
250.5031209,-0.73,0.42,-0.04,0.84
250.5217538,-0.88,0.44,0.11,0.99
250.5226979,-1.01,0.52,0.27,1.16
250.5327139,-1.07,0.63,0.48,1.33
250.5431898,-0.99,0.73,0.71,1.42
250.5533078,-0.79,0.78,0.93,1.44
250.5634336,-0.55,0.76,1.1,1.44
250.5738187,-0.26,0.76,1.28,1.51
250.5841017,0.06,0.73,1.45,1.62
250.5967488,0.28,0.61,1.56,1.69
250.6033478,0.42,0.43,1.6,1.7
250.6201868,0.42,0.33,1.63,1.71
250.6230519,0.01,0.49,1.65,1.72
250.6332989,-0.62,0.77,1.42,1.73
250.6450438,-0.79,0.65,0.79,1.29
250.6537368,-0.84,0.44,0.19,0.96
250.6640797,-0.93,0.53,-0.23,1.09
250.6742387,-0.87,0.63,-0.53,1.19
250.6842237,-0.62,0.63,-0.68,1.11
250.6960239,-0.2,0.55,-0.59,0.83
250.7040918,0.32,0.13,-0.36,0.49
250.7210317,0.68,-0.45,-0.1,0.82
250.7234008,0.82,-1.06,0.15,1.34
250.7337518,0.79,-1.63,0.35,1.84
250.7450888,0.45,-2.05,0.41,2.13
250.7541389,-0.04,-2.28,0.25,2.29
250.7644818,-0.53,-2.35,-0.02,2.4
250.7747717,-0.83,-2.35,-0.41,2.52
250.7843227,-0.89,-2.25,-0.78,2.54
250.7964749,-0.94,-1.91,-1.05,2.37
250.8048029,-1.02,-1.38,-1.17,2.07
250.822382,-0.99,-0.77,-1.15,1.7
250.8237929,-0.73,-0.26,-1.11,1.35
250.8342457,-0.3,0.11,-1.01,1.05
250.8451238,0.18,0.31,-0.89,0.95
250.8545337,0.63,0.34,-0.82,1.08
250.8651679,0.97,0.28,-0.73,1.24
250.8752069,1.16,0.19,-0.69,1.36
250.8849349,1.11,0.05,-0.69,1.3
250.8961678,0.9,-0.22,-0.62,1.11
250.9053159,0.65,-0.49,-0.56,0.98
250.9241047,0.44,-0.76,-0.48,1
250.9250379,0.26,-1.05,-0.42,1.16
250.9349458,0.08,-1.26,-0.36,1.31
250.9450738,-0.09,-1.4,-0.3,1.43
250.9549608,-0.28,-1.44,-0.25,1.48
250.965714,-0.43,-1.41,-0.24,1.49
250.9752889,-0.51,-1.25,-0.24,1.37
250.9854317,-0.52,-0.89,-0.32,1.07
250.9963598,-0.54,-0.46,-0.37,0.8
251.0057039,-0.43,-0.07,-0.38,0.57
251.0230398,-0.31,0.36,-0.25,0.53
251.0248089,-0.18,0.75,-0.02,0.77
251.0351238,0.03,0.94,0.16,0.95
251.0455647,0.24,1.07,0.3,1.13
251.0553858,0.38,1.24,0.44,1.36
251.06566,0.46,1.38,0.58,1.56
251.0758808,0.51,1.47,0.69,1.7
251.0862837,0.56,1.53,0.79,1.81
251.0972269,0.62,1.6,0.88,1.92
251.1065888,0.66,1.62,0.9,1.96
251.1241298,0.72,1.59,0.87,1.95
251.1251307,0.67,1.58,0.78,1.88
251.1354547,0.52,1.57,0.67,1.78
251.1459548,0.35,1.56,0.57,1.69
251.1557689,0.18,1.49,0.46,1.56
251.1660848,0.04,1.41,0.31,1.44
251.1763268,-0.09,1.34,0.13,1.34
251.1864169,-0.2,1.29,-0.04,1.3
251.1967759,-0.25,1.27,-0.14,1.3
251.2064548,-0.25,1.2,-0.19,1.24
251.2231548,-0.3,1.15,-0.2,1.2
251.2257257,-0.37,1.12,-0.18,1.19
251.2359977,-0.36,1.06,-0.23,1.14
251.2460237,-0.26,1.02,-0.34,1.1
251.2561779,-0.21,1.08,-0.46,1.19
251.2672038,-0.18,1.28,-0.55,1.4
251.2795548,-0.19,1.47,-0.74,1.65
251.287468,-0.04,1.48,-0.93,1.74
251.2967298,0.13,1.48,-0.91,1.74
251.3071158,0.32,1.4,-0.67,1.58
251.3228638,0.48,1.21,-0.14,1.3
251.3272388,0.65,0.88,0.52,1.21
251.3362288,0.91,0.4,1.03,1.43
251.3470879,1.21,-0.32,1.3,1.8
251.3570058,1.46,-1.12,1.42,2.32
251.3675158,1.52,-1.78,1.44,2.74
251.3792787,1.38,-2.22,1.41,2.97
251.3875909,1.08,-2.45,1.38,3.01
251.3975587,0.73,-2.53,1.27,2.92
251.4075799,0.45,-2.5,0.99,2.72
251.4231768,0.36,-2.46,0.58,2.55
251.4274898,0.48,-2.28,0.08,2.33
251.4367998,0.63,-2,-0.34,2.12
251.4474208,0.69,-1.64,-0.68,1.9
251.4572067,0.64,-1.21,-0.89,1.63
251.4676147,0.49,-0.83,-0.93,1.33
251.479528,0.38,-0.61,-0.84,1.1
251.4882088,0.46,-0.59,-0.74,1.05
251.4980109,0.49,-0.69,-0.64,1.06
251.5077319,0.41,-0.84,-0.51,1.06
251.5217748,0.26,-1.01,-0.43,1.12
251.5272098,0.01,-1.14,-0.45,1.22
251.5372448,-0.21,-1.24,-0.59,1.38
251.5477998,-0.37,-1.3,-0.75,1.54
251.5577648,-0.55,-1.26,-0.81,1.59
251.5682859,-0.71,-1.15,-0.73,1.53
251.5793328,-0.74,-1.04,-0.66,1.43
251.5883999,-0.66,-0.92,-0.59,1.27
251.5984697,-0.51,-0.69,-0.54,1.01
251.6086748,-0.35,-0.44,-0.52,0.76
251.6227658,-0.23,-0.2,-0.41,0.51
251.6274269,-0.17,0.06,-0.13,0.22
251.6375508,-0.17,0.2,0.18,0.31
251.6481919,-0.11,0.31,0.5,0.59
251.6580799,-0.04,0.39,0.74,0.83
251.6683288,0.03,0.38,0.83,0.91
251.6793699,0.07,0.37,0.78,0.86
251.6889977,0.38,0.29,0.52,0.7
251.6988397,0.4,0.56,0.47,0.83
251.7087548,0.51,0.81,0.42,1.04
251.7233148,0.68,0.86,0.43,1.17
251.7282119,0.71,0.85,0.5,1.21
251.7386169,0.55,0.91,0.6,1.22
251.7485778,0.4,0.94,0.73,1.25
251.758986,0.31,0.89,0.8,1.23
251.7692099,0.08,0.77,0.8,1.11
251.7792759,-0.2,0.62,0.74,0.98
251.7893748,-0.41,0.38,0.58,0.8
251.7994568,-0.38,0.3,0.44,0.65
251.8093829,-0.28,0.44,0.35,0.62
251.8229368,-0.1,0.62,0.26,0.67
251.8286099,0.07,0.73,0.15,0.74
251.8384728,0.02,0.85,0.19,0.87
251.8491988,-0.35,1.03,0.37,1.14
251.8592489,-0.89,1.29,0.53,1.65
251.8692117,-1.15,1.35,0.44,1.82
251.8796098,-0.97,1.09,0.16,1.46
251.8895597,-0.75,0.97,-0.01,1.22
251.8998659,-0.74,1.16,0.03,1.37
251.909544,-0.72,1.25,0.18,1.45
251.9226208,-0.48,0.8,0.39,1.01
251.9292827,-0.15,0.04,0.66,0.67
251.9389508,0.06,-0.67,0.93,1.14
251.9495108,0.02,-1.19,1.14,1.64
251.961659,-0.12,-1.67,1.14,2.02
251.9694428,-0.31,-2.15,0.97,2.37
251.9798238,-0.56,-2.55,0.69,2.7
251.9903469,-0.82,-2.77,0.41,2.91
252.0001788,-1.17,-2.81,0.15,3.04
252.0226858,-1.45,-2.67,-0.08,3.03
252.0236108,-1.51,-2.44,-0.38,2.89
252.0296659,-1.46,-2.05,-0.63,2.59
252.0396469,-1.32,-1.59,-0.79,2.21
252.0503478,-1.17,-1.05,-0.82,1.77
252.0615907,-1.15,-0.44,-0.75,1.44
252.0705228,-1.1,0.03,-0.58,1.24
252.0805728,-0.92,0.3,-0.46,1.07
252.0904849,-0.64,0.42,-0.35,0.84
252.100482,-0.4,0.53,-0.24,0.7
252.1224048,-0.26,0.51,-0.2,0.6
252.1233318,-0.16,0.31,-0.33,0.48
252.1301107,-0.13,0.08,-0.51,0.53
252.1397529,-0.14,-0.12,-0.68,0.7
252.1507099,-0.13,-0.35,-0.81,0.89
252.1615067,-0.15,-0.64,-0.87,1.09
252.1708727,-0.21,-0.89,-0.85,1.24
252.1809008,-0.26,-1.09,-0.82,1.38
252.191268,-0.39,-1.26,-0.78,1.53
252.2013328,-0.53,-1.35,-0.74,1.62
252.2233367,-0.7,-1.37,-0.73,1.7
252.2242379,-0.88,-1.29,-0.77,1.74
252.2303829,-1,-1.14,-0.79,1.7
252.2402098,-1.06,-0.87,-0.8,1.58
252.2510428,-1.1,-0.68,-0.75,1.49
252.2616129,-1.12,-0.59,-0.71,1.45
252.2712688,-1.14,-0.47,-0.52,1.33
252.2813807,-1.13,-0.34,-0.26,1.2
252.2915387,-0.98,-0.22,-0.02,1
252.3015668,-0.82,-0.1,0.21,0.85
252.3220878,-0.75,0.02,0.31,0.81
252.3229618,-0.69,0.23,0.37,0.81
252.3307157,-0.74,0.46,0.28,0.91
252.3404107,-0.78,0.78,0.13,1.11
252.3513427,-0.8,1.1,0.02,1.36
252.361794,-0.73,1.39,-0.09,1.57
252.3718548,-0.58,1.66,-0.08,1.76
252.381938,-0.39,1.86,0.05,1.9
252.3918529,-0.07,1.91,0.21,1.92
252.4019237,0.14,1.94,0.46,1.99
252.4238067,0.28,1.91,0.79,2.08
252.4247227,0.38,1.88,1.19,2.25
252.4312749,0.43,1.75,1.52,2.35
252.4413309,0.4,1.5,1.63,2.25
252.4514518,0.25,1.23,1.52,1.97
252.4617357,0.08,1.05,1.29,1.66
252.4722438,-0.09,1.03,1.1,1.5
252.4823909,-0.21,1.04,1.05,1.49
252.4918408,-0.21,1.03,1.14,1.55
252.5025508,-0.18,0.9,1.34,1.62
252.5210876,-0.12,0.64,1.42,1.56
252.5217478,-0.16,0.36,1.42,1.47
252.5311999,-0.26,0.15,1.39,1.42
252.5414078,-0.33,-0.03,1.32,1.36
252.5513008,-0.42,-0.19,1.17,1.25
252.5612369,-0.51,-0.29,0.99,1.15
252.5713978,-0.52,-0.13,0.84,0.99
252.5829468,-0.63,0.25,0.68,0.96
252.5918198,-0.62,0.43,0.37,0.84
252.6014757,-0.43,0.42,0,0.6
252.6207888,-0.25,0.3,-0.42,0.57
252.6213958,-0.08,0.19,-0.79,0.81
252.6328549,0.12,0.19,-0.94,0.96
252.6440797,0.46,0.2,-0.84,0.97
252.652658,0.91,-0.07,-0.58,1.08
252.6623628,1.22,-0.58,-0.23,1.37
252.6731377,1.3,-1.1,0.11,1.7
252.681881,1.25,-1.54,0.36,2.01
252.6952729,1.15,-1.93,0.49,2.29
252.7029388,0.91,-2.34,0.43,2.54
252.723434,0.61,-2.58,0.15,2.65
252.72436,0.24,-2.64,-0.2,2.65
252.7325509,-0.12,-2.53,-0.54,2.58
252.7435918,-0.29,-2.21,-0.82,2.37
252.7531509,-0.26,-1.71,-0.88,1.94
252.7633057,-0.17,-1.32,-1,1.66
252.773665,-0.18,-1.09,-1.17,1.6
252.7837639,-0.24,-0.81,-1.23,1.49
252.7958298,-0.27,-0.55,-1.21,1.35
252.8037589,-0.18,-0.41,-1.14,1.22
252.8252997,0.01,-0.39,-1.07,1.13
252.8271837,0.18,-0.36,-0.97,1.05
252.8330338,0.26,-0.29,-0.81,0.89
252.8435638,0.29,-0.21,-0.58,0.68
252.8527937,0.29,-0.21,-0.28,0.45
252.8636558,0.31,-0.28,0.03,0.41
252.873796,0.34,-0.39,0.38,0.64
252.8842068,0.36,-0.52,0.69,0.93
252.8955197,0.26,-0.63,0.95,1.16
252.9043617,0.13,-0.77,0.99,1.26
252.9253428,-0.01,-0.78,0.92,1.2
252.9274719,-0.24,-0.75,0.76,1.09
252.9334207,-0.44,-0.62,0.61,0.97
252.9434938,-0.55,-0.33,0.49,0.8
252.9536119,-0.54,-0.03,0.4,0.67
252.9641068,-0.47,0.13,0.33,0.58
252.9739408,-0.38,0.19,0.22,0.47
252.984643,-0.32,0.26,0.16,0.44
252.9935758,-0.27,0.32,0.16,0.44
253.0051579,-0.17,0.36,0.22,0.45
253.0262048,-0.08,0.4,0.27,0.48
253.0282338,-0.01,0.44,0.31,0.53
253.0338387,0.04,0.45,0.3,0.54
253.046958,0.02,0.46,0.24,0.51
253.0544698,-0.06,0.53,0.18,0.56
253.0645928,-0.08,0.55,0.19,0.58
253.0752919,-0.14,0.6,0.38,0.72
253.0853148,-0.22,0.61,0.63,0.9
253.0956297,-0.25,0.55,0.9,1.08
253.1049747,-0.28,0.44,1.16,1.27
253.1174748,-0.23,0.33,1.28,1.34
253.1248028,-0.19,0.27,1.39,1.42
253.1362929,-0.25,0.27,1.32,1.37
253.1444468,-0.31,0.31,1.08,1.16
253.1546698,-0.26,0.37,0.74,0.86
253.1648688,-0.21,0.4,0.4,0.6
253.1762147,-0.18,0.42,0.16,0.48
253.1850457,-0.14,0.47,-0.03,0.49
253.1957827,-0.1,0.48,-0.17,0.51
253.2058287,-0.07,0.46,-0.3,0.55
253.2161858,-0.02,0.46,-0.28,0.53
253.2253838,-0.04,0.45,-0.19,0.49
253.2371507,-0.08,0.32,-0.05,0.33
253.2407999,-0.05,0.3,-0.04,0.3
253.2508969,-0.03,0.12,0.13,0.17
253.2609267,-0.01,0,0.27,0.27
253.2714558,-0.05,-0.08,0.36,0.37
253.2817578,-0.22,-0.05,0.37,0.43
253.2925267,-0.61,0.19,0.4,0.75
253.3017519,-1.02,0.42,0.37,1.16
253.3212268,-1.27,0.59,0.22,1.41
253.3221807,-1.29,0.66,-0.06,1.45
253.3309317,-1.09,0.57,-0.49,1.32
253.340827,-0.78,0.48,-0.86,1.25
253.3510427,-0.4,0.55,-0.92,1.14
253.3612578,0.2,0.45,-0.68,0.83
253.3712749,1.02,0.01,-0.26,1.05
253.3812947,1.57,-0.6,0.27,1.7
253.3918667,1.75,-1.29,0.69,2.28
253.4026189,1.77,-1.98,0.86,2.79
253.4231009,1.58,-2.54,0.81,3.09
253.4241748,1.26,-2.93,0.59,3.24
253.4318979,0.83,-3.08,0.29,3.2
253.4416878,0.45,-3.01,-0.04,3.04
253.4521737,0.24,-2.85,-0.44,2.89
253.462441,0.07,-2.58,-0.81,2.7
253.4728279,-0.15,-2.14,-1.09,2.4
253.483182,-0.32,-1.56,-1.19,1.98
253.4958198,-0.42,-0.95,-1.19,1.57
253.5025349,-0.29,-0.44,-1.05,1.17
253.5189588,0.1,-0.14,-0.86,0.87
253.5221319,0.58,-0.02,-0.71,0.91
253.5325968,1.01,-0.01,-0.58,1.16
253.5444479,1.32,-0.06,-0.49,1.4
253.5532138,1.44,-0.14,-0.37,1.49
253.5632188,1.41,-0.18,-0.27,1.44
253.5731807,1.3,-0.35,-0.18,1.35
253.5835068,1.22,-0.61,-0.12,1.36
253.5954778,1.11,-0.78,0,1.35
253.6035709,1.09,-0.91,0.2,1.43
253.6231236,1.12,-1.05,0.43,1.59
253.624126,1.17,-1.15,0.69,1.77
253.632618,1.21,-1.17,1.03,1.97
253.6431348,1.16,-1.2,1.23,2.07
253.6533208,1.08,-1.17,1.27,2.03
253.6631727,0.93,-1.05,1.16,1.82
253.6736588,0.67,-0.91,0.96,1.48
253.6837907,0.42,-0.71,0.7,1.08
253.6954117,0.31,-0.47,0.43,0.7
253.7040088,0.25,-0.23,0.28,0.44
253.725863,0.16,0.03,0.21,0.26
253.7278748,0.11,0.25,0.18,0.32
253.7328568,0.22,0.41,0.23,0.51
253.7465248,0.48,0.45,0.25,0.7
253.7531819,0.73,0.47,0.27,0.9
253.7637029,0.92,0.74,0.38,1.24
253.7742238,1.09,0.98,0.5,1.54
253.7842648,1.3,1.05,0.56,1.76
253.7953858,1.44,1.1,0.62,1.91
253.8055677,1.46,1.13,0.77,2
253.8264418,1.37,0.95,0.92,1.9
253.8284128,1.16,0.68,1.05,1.7
253.8334837,0.87,0.48,1.19,1.55
253.8468788,0.64,0.31,1.27,1.45
253.8541107,0.39,0.16,1.21,1.28
253.8641849,0.23,0.08,1.06,1.08
253.8743908,0.12,0.09,0.83,0.84
253.8849587,0.02,0.13,0.55,0.56
253.895031,-0.02,0.18,0.22,0.28
253.9047098,-0.01,0.2,-0.09,0.21
253.9174309,0.11,0.23,-0.31,0.4
253.9243379,0.28,0.3,-0.34,0.53
253.9370768,0.41,0.34,-0.26,0.59
253.9441566,0.5,0.33,-0.15,0.61
253.9544849,0.59,0.23,-0.08,0.63
253.9647579,0.64,0.13,-0.04,0.65
253.9755039,0.63,0.08,0.05,0.63
253.9849219,0.54,0.03,0.12,0.55
253.9955359,0.45,-0.03,0.13,0.46
254.004653,0.36,-0.03,0.13,0.38
254.0161738,0.36,0.01,0.15,0.39
254.0249367,0.34,0.09,0.18,0.39
254.0379298,0.27,0.22,0.28,0.44
254.0446577,0.19,0.43,0.66,0.81
254.0543447,0.19,0.48,1.1,1.21
254.0650668,0.06,0.52,1.41,1.5
254.0748458,-0.11,0.69,1.49,1.64
254.0853758,-0.11,0.66,1.19,1.36
254.0957148,0.08,0.44,0.82,0.93
254.1051939,0.31,0.38,0.7,0.85
254.1161199,0.41,0.43,0.85,1.03
254.1252549,0.52,0.25,0.99,1.14
254.1379738,0.73,-0.23,1.02,1.27
254.1451559,0.85,-0.73,1.08,1.55
254.1546228,0.85,-1.13,1.11,1.79
254.1654248,0.79,-1.44,1.11,1.98
254.1774859,0.75,-1.59,1.04,2.04
254.1853867,0.71,-1.59,0.82,1.92
254.196013,0.76,-1.53,0.51,1.78
254.205987,0.91,-1.45,0.18,1.72
254.2169709,1.05,-1.34,-0.08,1.7
254.2399168,1.2,-1.16,-0.22,1.68
254.2410238,1.54,-1.12,-0.41,1.94
254.245399,1.94,-1.17,-0.63,2.35
254.255178,2.17,-1.27,-0.77,2.62
254.2659307,2.26,-1.41,-0.76,2.77
254.2769527,2.23,-1.52,-0.55,2.75
254.2864637,2.17,-1.73,-0.16,2.77
254.2965837,2.11,-2.13,0.17,3
254.3064508,2.02,-2.38,0.37,3.14
254.3163638,2.01,-2.49,0.4,3.22
254.3366458,2.13,-2.58,0.23,3.35
254.3375688,2.28,-2.64,0.08,3.48
254.3457379,2.42,-2.63,-0.03,3.57
254.355855,2.47,-2.54,-0.04,3.54
254.3664188,2.51,-2.46,-0.01,3.51
254.3771429,2.56,-2.38,0.03,3.49
254.3869958,2.48,-2.29,0.04,3.37
254.3971388,2.23,-2.18,-0.03,3.11
254.406817,1.92,-2.03,-0.14,2.79
254.4166498,1.56,-1.88,-0.23,2.45
254.4378138,1.34,-1.71,-0.3,2.19
254.4387608,1.27,-1.44,-0.21,1.93
254.4461958,1.33,-1.19,0.03,1.78
254.4564819,1.49,-1.11,0.25,1.87
254.4668438,1.64,-1.06,0.56,2.03
254.4780629,1.74,-1,0.88,2.19
254.4875669,1.84,-1.01,1.13,2.38
254.497499,1.95,-1,1.38,2.58
254.5072107,2.04,-0.89,1.66,2.77
254.5169687,2.08,-0.85,1.85,2.91
254.5355759,2.06,-0.95,1.98,3.01
254.5364938,2.03,-1,2.09,3.08
254.5466068,2.02,-1.1,2.06,3.08
254.5574338,2,-1.15,1.89,2.98
254.5672579,1.95,-1.11,1.67,2.79
254.5773609,1.84,-1,1.44,2.54
254.5872219,1.78,-0.9,1.22,2.33
254.597775,1.65,-0.82,1.11,2.15
254.6080289,1.52,-0.77,1.08,2.01
254.6174018,1.39,-0.72,1.12,1.92
254.6355047,1.28,-0.71,1.28,1.94
254.6369028,1.22,-0.78,1.32,1.95
254.6471367,1.22,-0.8,1.47,2.07
254.6576598,1.28,-0.77,1.73,2.28
254.6676748,1.29,-0.81,1.85,2.39
254.6778507,1.19,-0.89,1.81,2.34
254.6883607,1.11,-0.92,1.75,2.26
254.6978397,1.03,-0.88,1.71,2.18
254.7078478,0.96,-0.91,1.62,2.09
254.7181919,0.86,-1.01,1.47,1.98
254.7369857,0.81,-1.09,1.28,1.86
254.7380369,0.8,-1.04,1.14,1.73
254.7475667,0.76,-1.04,0.94,1.59
254.7579827,0.66,-1.1,0.66,1.44
254.7679389,0.54,-1.11,0.42,1.3
254.7786438,0.36,-0.98,0.28,1.08
254.788662,0.21,-0.82,0.29,0.89
254.7986848,0.19,-0.73,0.54,0.92
254.8115368,0.32,-0.76,0.83,1.17
254.8181808,0.33,-0.85,0.98,1.33
254.8360338,0.25,-0.92,0.99,1.37
254.83776,0.09,-0.95,1.07,1.43
254.8480678,-0.09,-0.96,1.23,1.56
254.8604097,-0.37,-0.86,1.27,1.57
254.8686159,-0.67,-0.71,1.1,1.47
254.8785877,-0.9,-0.55,0.84,1.34
254.8888617,-1.03,-0.41,0.46,1.2
254.8988008,-1.03,-0.26,0.16,1.07
