time,ax,ay,az,atotal
0.0037527084350585938,0.59,-0.53,4.6,4.66
0.010558843612670898,0.96,-1.1,4.41,4.64
0.021693706512451172,1.18,-1.53,3.78,4.24
0.03161883354187012,1.22,-1.41,2.86,3.41
0.0470888614654541,1.05,-1.4,2.14,2.76
0.050752878189086914,0.83,-1.59,1.0,2.05
0.06074094772338867,0.61,-1.61,-0.05,1.72
0.07077980041503906,0.37,-1.59,-0.78,1.8
0.08079791069030762,0.2,-1.51,-1.35,2.03
0.09163188934326172,0.11,-1.34,-1.86,2.29
0.10139894485473633,0.05,-1.11,-2.22,2.48
0.11167693138122559,0.04,-0.99,-2.32,2.52
0.12126684188842773,0.03,-1.05,-2.24,2.47
0.13193082809448242,0.08,-1.18,-2.26,2.55
0.15035295486450195,0.11,-1.24,-2.23,2.55
0.1523289680480957,0.06,-1.29,-2.01,2.38
0.1606459617614746,0.03,-1.36,-1.86,2.3
0.17081403732299805,0.04,-1.45,-1.74,2.26
0.18160200119018555,0.1,-1.52,-1.73,2.3
0.1914539337158203,0.12,-1.56,-1.74,2.34
0.20134186744689941,0.13,-1.55,-1.74,2.33
0.21150779724121094,0.12,-1.49,-1.67,2.24
0.2215137481689453,0.04,-1.37,-1.61,2.11
0.2318098545074463,-0.07,-1.17,-1.58,1.96
0.2497577667236328,-0.16,-1.07,-1.63,1.95
0.2519059181213379,-0.22,-1.02,-1.83,2.1
0.26113080978393555,-0.27,-0.96,-2.1,2.32
0.27092599868774414,-0.41,-0.88,-2.34,2.53
0.2807028293609619,-0.64,-0.73,-2.47,2.65
0.29149389266967773,-0.77,-0.61,-2.59,2.77
0.30120277404785156,-0.82,-0.55,-2.79,2.95
0.3115508556365967,-0.84,-0.47,-2.97,3.12
0.32150983810424805,-0.95,-0.33,-2.9,3.06
0.33152294158935547,-1.03,-0.16,-2.82,3.0
0.3482327461242676,-0.99,-0.07,-2.78,2.95
0.3507509231567383,-0.87,-0.01,-2.73,2.86
0.3611278533935547,-0.79,0.1,-2.56,2.68
0.37091493606567383,-0.71,0.22,-2.25,2.36
0.3806948661804199,-0.67,0.33,-1.88,2.02
0.3916587829589844,-0.66,0.52,-1.53,1.74
0.40152692794799805,-0.68,0.76,-1.2,1.57
0.4117617607116699,-0.69,0.98,-0.96,1.53
0.42137575149536133,-0.67,1.12,-0.76,1.51
0.43166089057922363,-0.64,1.22,-0.49,1.46
0.4495818614959717,-0.58,1.26,-0.09,1.39
0.4517369270324707,-0.57,1.24,0.41,1.42
0.4609339237213135,-0.54,1.25,1.01,1.69
0.4709348678588867,-0.5,1.26,1.68,2.15
0.4807920455932617,-0.46,1.26,2.27,2.63
0.491696834564209,-0.36,1.18,2.75,3.01
0.5014209747314453,-0.23,1.02,3.12,3.29
0.5114738941192627,-0.08,0.86,3.38,3.48
0.5210509300231934,-0.03,0.8,3.57,3.65
0.5310487747192383,-0.01,0.91,3.54,3.65
0.5484099388122559,-0.04,1.0,3.36,3.5
0.550419807434082,-0.14,1.0,3.23,3.38
0.5605916976928711,-0.29,1.12,3.13,3.33
0.5705447196960449,-0.4,1.37,3.05,3.36
0.5814008712768555,-0.46,1.58,3.09,3.5
0.5915017127990723,-0.48,1.39,3.26,3.57
0.6013517379760742,-0.56,0.95,3.54,3.7
0.611163854598999,-0.64,0.53,3.91,3.99
0.6213140487670898,-0.64,0.18,4.16,4.21
0.6312808990478516,-0.61,-0.18,4.16,4.2
0.6525118350982666,-0.56,-0.49,3.85,3.92
0.6547489166259766,-0.52,-0.71,3.25,3.36
0.6606729030609131,-0.55,-0.87,2.46,2.66
0.6715550422668457,-0.64,-1.06,1.61,2.03
0.6814858913421631,-0.81,-1.27,0.81,1.71
0.6912999153137207,-1.01,-1.44,0.13,1.76
0.7013068199157715,-1.21,-1.5,-0.32,1.95
0.7113537788391113,-1.44,-1.45,-0.6,2.12
0.7213287353515625,-1.6,-1.34,-0.75,2.21
0.7313647270202637,-1.67,-1.24,-0.9,2.26
0.7493619918823242,-1.73,-1.21,-1.08,2.37
0.7514767646789551,-1.71,-1.24,-1.18,2.41
0.7607207298278809,-1.64,-1.31,-1.22,2.42
0.7706878185272217,-1.57,-1.43,-1.2,2.43
0.781527042388916,-1.49,-1.55,-1.21,2.46
0.7917008399963379,-1.42,-1.58,-1.24,2.45
0.8013968467712402,-1.33,-1.58,-1.33,2.45
0.811558723449707,-1.23,-1.63,-1.44,2.49
0.8219847679138184,-1.13,-1.66,-1.6,2.56
0.831920862197876,-0.97,-1.68,-1.85,2.68
0.852262020111084,-0.81,-1.63,-2.13,2.8
0.854374885559082,-0.66,-1.55,-2.45,2.97
0.8607149124145508,-0.52,-1.45,-2.76,3.16
0.8709487915039062,-0.44,-1.32,-2.98,3.28
0.881619930267334,-0.38,-1.18,-3.13,3.36
0.8918728828430176,-0.37,-0.98,-3.33,3.49
0.901634931564331,-0.36,-0.83,-3.37,3.48
0.9121048450469971,-0.39,-0.65,-3.3,3.38
0.9215917587280273,-0.45,-0.46,-3.19,3.25
0.9320259094238281,-0.51,-0.34,-3.09,3.15
0.952293872833252,-0.48,-0.25,-3.11,3.15
0.9541449546813965,-0.44,-0.11,-3.23,3.26
0.9607686996459961,-0.39,0.06,-3.19,3.21
0.9709699153900146,-0.24,0.25,-3.02,3.03
0.9809517860412598,-0.03,0.43,-2.71,2.74
0.9920740127563477,0.13,0.6,-2.21,2.29
1.0014300346374512,0.15,0.77,-1.8,1.96
1.0117528438568115,0.17,0.89,-1.49,1.74
1.021440029144287,0.24,0.97,-1.21,1.56
1.0320677757263184,0.44,1.07,-0.83,1.42
1.051616907119751,0.55,1.23,-0.38,1.39
1.0533828735351562,0.64,1.44,0.11,1.57
1.0607709884643555,0.75,1.61,0.78,1.93
1.071131706237793,0.79,1.73,1.35,2.33
1.0818099975585938,0.77,1.81,1.67,2.58
1.092148780822754,0.76,1.91,1.9,2.79
1.1015598773956299,0.79,1.95,2.01,2.9
1.1117749214172363,0.82,1.89,2.08,2.92
1.1213297843933105,0.81,1.77,2.14,2.89
1.1319708824157715,0.78,1.74,2.15,2.87
1.1510028839111328,0.77,1.79,2.14,2.89
1.1527018547058105,0.8,1.87,2.09,2.91
1.160614013671875,0.8,1.93,2.01,2.89
1.1710319519042969,0.76,2.07,1.95,2.94
1.180858850479126,0.77,2.36,1.93,3.14
1.1919608116149902,0.85,2.5,2.04,3.33
1.2014389038085938,0.85,2.28,2.31,3.35
1.2117938995361328,0.75,1.79,2.8,3.4
1.2217097282409668,0.64,1.28,3.5,3.78
1.2318239212036133,0.49,0.84,4.24,4.35
1.249135971069336,0.45,0.24,4.9,4.92
1.2509589195251465,0.54,-0.46,5.22,5.26
1.2609689235687256,0.71,-1.21,5.3,5.48
1.2708487510681152,0.85,-1.83,5.03,5.41
1.280956745147705,0.91,-2.19,4.39,4.98
1.2918999195098877,0.95,-2.27,3.31,4.12
1.3015458583831787,1.05,-2.24,2.08,3.23
1.3115739822387695,1.05,-2.26,0.95,2.66
1.3215408325195312,0.97,-2.27,-0.1,2.47
1.3324968814849854,0.89,-2.18,-1.06,2.58
1.350287914276123,0.84,-2.03,-1.81,2.84
1.352107048034668,0.86,-1.87,-2.41,3.16
1.3609709739685059,0.93,-1.75,-2.89,3.5
1.3709938526153564,1.01,-1.68,-3.22,3.76
1.3810310363769531,1.11,-1.67,-3.32,3.87
1.3913817405700684,1.15,-1.66,-3.38,3.93
1.4017138481140137,1.17,-1.66,-3.35,3.91
1.4115278720855713,1.18,-1.7,-3.26,3.86
1.4215788841247559,1.17,-1.77,-3.15,3.79
1.4315438270568848,1.14,-1.85,-3.0,3.7
1.450516700744629,1.05,-1.84,-2.81,3.51
1.4523258209228516,0.84,-1.74,-2.63,3.26
1.4609909057617188,0.65,-1.63,-2.55,3.09
1.4709887504577637,0.52,-1.57,-2.53,3.02
1.4809858798980713,0.41,-1.51,-2.54,2.98
1.4919638633728027,0.27,-1.35,-2.6,2.94
1.5012338161468506,0.14,-1.17,-2.66,2.9
1.5118327140808105,0.09,-0.99,-2.71,2.88
1.5214898586273193,0.03,-0.76,-2.75,2.85
1.5319099426269531,-0.05,-0.49,-2.66,2.7
1.5502519607543945,-0.12,-0.25,-2.55,2.56
1.5520238876342773,-0.18,-0.04,-2.42,2.42
1.5608787536621094,-0.22,0.14,-2.38,2.39
1.5712058544158936,-0.22,0.37,-2.36,2.39
1.582434892654419,-0.13,0.66,-2.23,2.32
1.5917949676513672,-0.07,0.93,-1.95,2.16
1.601733922958374,-0.03,1.14,-1.59,1.95
1.6119227409362793,-0.04,1.29,-1.09,1.68
1.6217608451843262,-0.04,1.37,-0.52,1.46
1.6319859027862549,-0.05,1.43,0.0,1.43
1.651432991027832,-0.14,1.58,0.49,1.66
1.6531319618225098,-0.19,1.67,0.91,1.91
1.661031723022461,-0.22,1.66,1.26,2.09
1.6710519790649414,-0.29,1.63,1.57,2.28
1.681797981262207,-0.36,1.6,1.8,2.43
1.6921648979187012,-0.33,1.56,2.0,2.55
1.7015857696533203,-0.24,1.48,2.16,2.62
1.7118449211120605,-0.14,1.44,2.35,2.75
1.7216839790344238,-0.03,1.43,2.54,2.91
1.7320499420166016,0.03,1.47,2.67,3.04
1.751741886138916,0.04,1.6,2.66,3.1
1.7534918785095215,0.03,1.76,2.69,3.21
1.76090669631958,-0.05,1.78,2.91,3.41
1.7710957527160645,-0.2,1.49,3.28,3.6
1.781592845916748,-0.27,0.97,3.85,3.97
1.7918498516082764,-0.3,0.56,4.42,4.46
1.8014507293701172,-0.16,0.27,4.79,4.8
1.8116588592529297,0.14,-0.08,5.06,5.06
1.8216500282287598,0.41,-0.59,5.17,5.21
1.8322808742523193,0.52,-1.05,5.12,5.25
1.8508410453796387,0.46,-1.31,4.84,5.03
1.8525876998901367,0.25,-1.35,4.23,4.44
1.8610219955444336,0.11,-1.37,3.33,3.6
1.8711318969726562,0.01,-1.48,2.22,2.66
1.8811838626861572,-0.18,-1.58,1.19,1.98
1.8922200202941895,-0.38,-1.64,0.37,1.72
1.9014878273010254,-0.59,-1.63,-0.28,1.75
1.9117908477783203,-0.77,-1.52,-0.8,1.88
1.9216349124908447,-0.94,-1.36,-1.22,2.05
1.9318790435791016,-1.09,-1.13,-1.49,2.16
1.9498987197875977,-1.18,-1.02,-1.62,2.24
1.9517488479614258,-1.23,-1.05,-1.66,2.31
1.9609637260437012,-1.22,-1.14,-1.65,2.34
1.9710638523101807,-1.24,-1.23,-1.58,2.35
1.9812507629394531,-1.2,-1.36,-1.42,2.3
1.9919888973236084,-1.13,-1.46,-1.24,2.22
2.001771926879883,-1.05,-1.57,-1.24,2.25
2.0118837356567383,-0.96,-1.67,-1.38,2.36
2.0219168663024902,-0.87,-1.68,-1.65,2.51
2.032665729522705,-0.79,-1.62,-1.95,2.65
2.052842855453491,-0.74,-1.51,-2.25,2.8
2.0546188354492188,-0.68,-1.4,-2.51,2.95
2.060917854309082,-0.67,-1.31,-2.75,3.11
2.0711278915405273,-0.61,-1.2,-2.99,3.27
2.0811028480529785,-0.55,-1.04,-3.19,3.4
2.091998815536499,-0.45,-0.85,-3.31,3.44
2.101442813873291,-0.33,-0.68,-3.37,3.45
2.111924886703491,-0.24,-0.5,-3.33,3.37
2.1218748092651367,-0.17,-0.32,-3.22,3.24
2.1322317123413086,-0.09,-0.18,-3.07,3.07
2.1512718200683594,-0.01,-0.06,-2.93,2.93
2.153101921081543,0.06,0.04,-2.76,2.76
2.1610379219055176,0.15,0.09,-2.59,2.59
2.171182870864868,0.26,0.08,-2.47,2.48
2.181766986846924,0.35,0.08,-2.39,2.41
2.190896987915039,0.39,0.19,-2.3,2.34
2.201848030090332,0.43,0.41,-2.21,2.28
2.211660861968994,0.5,0.64,-2.17,2.31
2.2216598987579346,0.59,0.8,-2.05,2.27
2.231888771057129,0.67,0.92,-1.94,2.24
2.251243829727173,0.83,1.03,-1.72,2.16
2.253077983856201,1.03,1.11,-1.41,2.06
2.2611048221588135,1.1,1.24,-0.91,1.89
2.271225929260254,1.09,1.36,-0.2,1.75
2.2810540199279785,1.02,1.45,0.66,1.89
2.2920479774475098,1.03,1.44,1.5,2.32
2.30136775970459,1.06,1.38,2.3,2.88
2.3116729259490967,1.18,1.38,3.01,3.51
2.32201886177063,1.33,1.46,3.6,4.1
2.332096815109253,1.47,1.6,4.0,4.55
2.3538918495178223,1.56,1.78,4.25,4.86
2.35566782951355,1.65,1.93,4.44,5.11
2.3609089851379395,1.75,2.04,4.51,5.25
2.371152877807617,1.84,1.94,4.59,5.31
2.381103038787842,1.89,1.5,4.83,5.39
2.3919718265533447,1.77,0.85,5.12,5.48
2.4015097618103027,1.66,0.18,5.36,5.61
2.4119489192962646,1.59,-0.44,5.44,5.68
2.4215049743652344,1.54,-0.88,5.24,5.53
2.4322798252105713,1.47,-1.23,4.74,5.11
2.4517107009887695,1.34,-1.54,4.01,4.49
2.4535460472106934,1.2,-1.79,3.09,3.76
2.4610848426818848,1.0,-2.07,2.08,3.1
2.471202850341797,0.74,-2.38,1.08,2.71
2.481135845184326,0.51,-2.63,0.22,2.68
2.4919400215148926,0.38,-2.88,-0.33,2.92
2.5013668537139893,0.27,-2.89,-1.01,3.07
2.5120949745178223,0.21,-2.54,-1.78,3.1
2.5214688777923584,0.22,-2.31,-2.16,3.17
2.5323288440704346,0.27,-2.29,-2.4,3.32
2.5537619590759277,0.21,-2.21,-2.53,3.36
2.555567741394043,-0.01,-1.92,-2.44,3.1
2.5609328746795654,-0.22,-1.58,-2.18,2.7
2.570910930633545,-0.32,-1.38,-1.91,2.37
2.580972909927368,-0.4,-1.36,-1.72,2.22
2.5915069580078125,-0.37,-1.5,-1.63,2.24
2.6018898487091064,-0.25,-1.68,-1.68,2.38
2.61177396774292,-0.17,-1.72,-1.88,2.55
2.6219139099121094,-0.14,-1.66,-2.16,2.72
2.6317996978759766,-0.09,-1.6,-2.36,2.85
2.650169849395752,-0.11,-1.56,-2.5,2.94
2.652029037475586,-0.22,-1.41,-2.62,2.98
2.6610019207000732,-0.36,-1.2,-2.77,3.04
2.6712050437927246,-0.4,-1.07,-2.91,3.12
2.6809959411621094,-0.44,-0.95,-3.06,3.23
2.6911628246307373,-0.49,-0.83,-3.16,3.3
2.7017927169799805,-0.52,-0.65,-3.2,3.3
2.711960792541504,-0.52,-0.44,-3.24,3.31
2.721904754638672,-0.47,-0.29,-3.28,3.32
2.7322239875793457,-0.41,-0.17,-3.23,3.26
2.7525699138641357,-0.38,0.01,-3.18,3.2
2.754349708557129,-0.32,0.24,-3.07,3.09
2.760969877243042,-0.25,0.5,-2.81,2.86
2.7712419033050537,-0.2,0.72,-2.37,2.48
2.781921863555908,-0.11,0.83,-1.84,2.02
2.7920479774475098,-0.02,0.87,-1.36,1.61
2.801693916320801,0.01,0.95,-0.86,1.28
2.8118667602539062,-0.04,1.07,-0.35,1.12
2.821870803833008,-0.13,1.27,0.07,1.27
2.831981897354126,-0.14,1.44,0.51,1.53
2.8516018390655518,-0.05,1.57,1.07,1.9
2.8534328937530518,0.11,1.65,1.66,2.34
2.8610548973083496,0.29,1.66,2.14,2.72
2.871316909790039,0.27,1.52,2.64,3.05
2.8810958862304688,0.16,1.39,3.23,3.52
2.8921027183532715,0.1,1.33,3.56,3.8
2.9017677307128906,0.13,1.24,3.56,3.77
2.9118669033050537,0.12,1.24,3.34,3.56
2.921860933303833,0.1,1.38,3.1,3.39
2.9318089485168457,0.02,1.54,2.93,3.31
2.949643850326538,-0.17,1.75,2.85,3.34
2.951511859893799,-0.32,1.99,2.98,3.59
2.9610798358917236,-0.4,1.91,3.36,3.88
2.971235752105713,-0.49,1.46,3.87,4.16
2.9811229705810547,-0.54,0.85,4.38,4.49
2.9919910430908203,-0.49,0.23,4.83,4.86
3.0017778873443604,-0.38,-0.34,5.01,5.03
3.011988878250122,-0.34,-0.74,4.89,4.95
3.0218939781188965,-0.41,-1.0,4.55,4.67
3.032029867172241,-0.57,-1.16,3.95,4.15
3.0518360137939453,-0.77,-1.37,3.19,3.55
3.0536928176879883,-1.02,-1.66,2.43,3.11
3.0609078407287598,-1.31,-1.86,1.74,2.86
3.0712478160858154,-1.56,-1.96,1.16,2.76
3.0810070037841797,-1.76,-2.0,0.63,2.73
3.0919909477233887,-1.91,-1.96,0.09,2.73
3.1016197204589844,-1.98,-1.9,-0.41,2.77
3.112143039703369,-1.99,-1.82,-0.79,2.81
3.1216118335723877,-1.91,-1.76,-1.18,2.85
3.1320247650146484,-1.72,-1.72,-1.53,2.87
3.1513588428497314,-1.48,-1.71,-1.82,2.9
3.1531567573547363,-1.24,-1.73,-2.05,2.95
3.1610329151153564,-0.99,-1.77,-2.3,3.06
3.1712758541107178,-0.83,-1.84,-2.54,3.24
3.1811089515686035,-0.74,-1.86,-2.72,3.37
3.1922359466552734,-0.65,-1.88,-2.92,3.53
3.20173978805542,-0.6,-1.83,-3.09,3.64
3.2119529247283936,-0.6,-1.71,-3.34,3.79
3.2217860221862793,-0.53,-1.58,-3.41,3.79
3.2323737144470215,-0.49,-1.43,-3.43,3.74
3.252717971801758,-0.49,-1.25,-3.4,3.65
3.2544429302215576,-0.43,-1.13,-3.34,3.55
3.2611398696899414,-0.37,-1.05,-3.28,3.46
3.271282911300659,-0.34,-0.97,-3.17,3.33
3.28115177154541,-0.31,-0.86,-3.05,3.18
3.292008876800537,-0.3,-0.71,-2.93,3.02
3.301980972290039,-0.24,-0.59,-2.81,2.88
3.312163829803467,-0.19,-0.47,-2.7,2.74
3.321781873703003,-0.1,-0.37,-2.67,2.69
3.3317627906799316,0.02,-0.29,-2.67,2.68
3.3520779609680176,0.09,-0.24,-2.65,2.66
3.3537139892578125,0.14,-0.24,-2.58,2.59
3.361083984375,0.19,-0.21,-2.51,2.52
3.371246814727783,0.26,-0.14,-2.42,2.43
3.3811750411987305,0.33,-0.01,-2.27,2.29
3.3913087844848633,0.4,0.18,-2.22,2.26
3.4020988941192627,0.44,0.42,-2.23,2.31
3.41196870803833,0.47,0.67,-2.19,2.33
3.4218008518218994,0.49,0.91,-2.03,2.27
3.4319119453430176,0.48,1.12,-1.74,2.12
3.4517219066619873,0.47,1.27,-1.31,1.88
3.453495979309082,0.47,1.41,-0.77,1.67
3.4611568450927734,0.45,1.51,-0.15,1.58
3.471252918243408,0.4,1.57,0.49,1.69
3.4812228679656982,0.29,1.59,1.17,1.99
3.491281032562256,0.15,1.54,1.97,2.5
3.5021109580993652,0.03,1.42,2.89,3.22
3.5118699073791504,-0.06,1.31,3.75,3.97
3.5216879844665527,-0.12,1.3,4.36,4.55
3.531843900680542,-0.1,1.43,4.83,5.03
3.549874782562256,0.0,1.56,5.1,5.33
3.5515427589416504,0.11,1.65,5.16,5.41
3.561131000518799,0.17,1.7,5.19,5.46
3.5712428092956543,0.2,1.68,5.2,5.46
3.5811147689819336,0.25,1.49,5.23,5.44
3.592047929763794,0.36,1.09,5.34,5.46
3.602005958557129,0.37,0.65,5.51,5.56
3.611982822418213,0.45,0.29,5.6,5.62
3.6219429969787598,0.64,-0.15,5.57,5.6
3.6324100494384766,0.75,-0.64,5.38,5.46
3.653392791748047,0.85,-0.96,4.83,4.99
3.6551668643951416,0.95,-1.19,3.96,4.24
3.6611168384552,1.06,-1.51,2.92,3.45
3.6713638305664062,1.1,-1.86,1.83,2.83
3.6812167167663574,1.05,-2.12,0.79,2.49
3.6919429302215576,1.05,-2.28,-0.24,2.52
3.7020249366760254,1.04,-2.35,-1.1,2.79
3.71250581741333,1.06,-2.29,-1.84,3.12
3.7222888469696045,1.09,-2.1,-2.55,3.47
3.7321510314941406,1.05,-1.88,-3.11,3.78
3.7529077529907227,0.96,-1.71,-3.55,4.05
3.75469970703125,0.8,-1.7,-3.76,4.2
3.761051893234253,0.66,-1.78,-3.85,4.29
3.771296977996826,0.42,-1.79,-3.89,4.3
3.7812209129333496,0.25,-1.73,-3.79,4.17
3.7912850379943848,0.11,-1.68,-3.72,4.08
3.8022007942199707,-0.06,-1.61,-3.65,3.98
3.8120129108428955,-0.21,-1.58,-3.59,3.92
3.8217108249664307,-0.39,-1.55,-3.61,3.94
3.8323607444763184,-0.55,-1.4,-3.58,3.88
3.8537087440490723,-0.74,-1.19,-3.53,3.79
3.8555428981781006,-0.9,-0.95,-3.49,3.72
3.8610010147094727,-1.01,-0.88,-3.73,3.96
3.871412754058838,-1.14,-0.87,-3.95,4.2
3.8811769485473633,-1.14,-0.79,-3.99,4.22
3.8921327590942383,-1.13,-0.64,-3.93,4.13
3.9018077850341797,-1.12,-0.44,-3.76,3.94
3.912230968475342,-1.1,-0.28,-3.89,4.05
3.9219658374786377,-1.07,-0.17,-3.94,4.08
3.932009696960449,-1.08,-0.1,-3.76,3.91
3.950687885284424,-1.07,0.04,-3.52,3.67
3.9525070190429688,-1.04,0.22,-3.28,3.44
3.9611568450927734,-0.99,0.4,-2.9,3.09
3.971378803253174,-0.92,0.59,-2.46,2.69
3.981318950653076,-0.79,0.75,-1.94,2.22
3.991250991821289,-0.61,0.89,-1.37,1.74
4.0021467208862305,-0.52,1.06,-0.72,1.38
4.009184837341309,-0.5,1.27,0.04,1.36
4.019417762756348,-0.54,1.44,0.82,1.74
4.029814720153809,-0.61,1.57,1.83,2.48
4.048305988311768,-0.6,1.62,2.93,3.4
4.050051927566528,-0.43,1.66,3.96,4.31
4.058671951293945,0.03,1.69,4.89,5.17
4.068769931793213,0.49,1.57,5.62,5.85
4.079075813293457,0.72,1.38,6.29,6.47
4.089526891708374,0.83,1.09,6.66,6.79
4.099186897277832,0.91,0.75,6.75,6.85
4.1096038818359375,0.97,0.49,6.59,6.67
4.119336843490601,0.95,0.4,6.31,6.39
4.130573749542236,0.87,0.49,5.85,5.93
4.146491050720215,0.8,0.75,5.38,5.49
4.148746013641357,0.74,1.05,5.05,5.21
4.158730983734131,0.64,1.11,4.86,5.02
4.168674945831299,0.55,0.94,4.84,4.96
4.1786580085754395,0.55,0.73,4.87,4.95
4.188901901245117,0.53,0.45,5.0,5.04
4.199914932250977,0.43,0.07,5.33,5.34
4.2091429233551025,0.28,-0.37,5.41,5.42
4.21958589553833,0.19,-0.81,5.03,5.09
4.229867935180664,0.09,-1.22,4.41,4.57
4.24641489982605,-0.06,-1.64,3.61,3.96
4.24871301651001,-0.36,-1.98,2.61,3.29
4.258608818054199,-0.63,-2.17,1.6,2.76
4.268758773803711,-0.92,-2.27,0.66,2.53
4.27862286567688,-1.29,-2.28,-0.04,2.61
4.2897820472717285,-1.62,-2.02,-0.55,2.64
4.29940390586853,-1.81,-1.85,-0.95,2.75
4.309842824935913,-2.0,-2.05,-1.41,3.19
4.319484710693359,-1.94,-2.07,-2.06,3.5
4.330259799957275,-1.78,-2.06,-2.41,3.63
4.346560955047607,-1.66,-1.96,-2.7,3.72
4.348680019378662,-1.54,-1.89,-2.96,3.83
4.35875391960144,-1.38,-1.79,-3.03,3.78
4.369037866592407,-1.25,-1.75,-3.1,3.77
4.378664016723633,-1.1,-1.67,-3.29,3.85
4.389065742492676,-0.88,-1.59,-3.62,4.05
4.399294853210449,-0.66,-1.65,-3.96,4.34
4.409372806549072,-0.6,-1.75,-4.36,4.73
4.4196457862854,-0.62,-1.78,-4.79,5.14
4.429742813110352,-0.69,-1.89,-5.17,5.54
4.4458818435668945,-0.76,-1.98,-5.42,5.82
4.448657989501953,-0.79,-1.96,-5.6,5.98
4.458856821060181,-0.82,-1.88,-5.85,6.19
4.468670845031738,-0.76,-1.64,-5.94,6.2
4.478693962097168,-0.62,-1.28,-5.96,6.12
4.489598751068115,-0.48,-0.97,-5.82,5.91
4.4996747970581055,-0.46,-0.68,-5.76,5.81
4.509300708770752,-0.47,-0.49,-5.56,5.6
4.51986289024353,-0.52,-0.35,-4.86,4.9
4.529995918273926,-0.55,-0.17,-4.44,4.47
4.547874927520752,-0.58,0.03,-4.08,4.12
4.549563884735107,-0.6,0.16,-3.45,3.5
4.558668851852417,-0.56,0.24,-3.01,3.07
4.568789958953857,-0.46,0.37,-2.64,2.7
4.579448699951172,-0.42,0.48,-2.26,2.34
4.589550018310547,-0.36,0.97,-0.03,1.03
4.599467754364014,-0.34,0.96,-1.63,1.92
4.609684944152832,1.19,0.74,-0.69,1.56
4.619617938995361,4.24,1.88,0.23,4.64
4.629771709442139,3.62,3.01,1.58,4.96
4.647233963012695,2.3,3.17,1.93,4.36
4.648828983306885,1.4,2.54,2.37,3.74
4.658751964569092,0.41,1.83,3.4,3.88
4.6712868213653564,0.01,1.4,3.94,4.18
4.682188987731934,0.07,1.19,4.15,4.31
4.691868782043457,0.17,1.08,4.39,4.52
4.702000856399536,0.28,1.04,4.65,4.77
4.712646007537842,0.39,1.03,4.99,5.11
4.721800804138184,0.46,0.95,5.04,5.14
4.732142925262451,0.64,0.92,4.97,5.09
4.752923011779785,0.77,0.96,4.88,5.03
4.754712820053101,0.85,0.93,4.77,4.93
4.761270999908447,0.93,0.68,4.89,5.02
4.771249771118164,0.84,0.32,5.25,5.32
4.781383991241455,0.68,-0.03,5.5,5.54
4.791444778442383,0.6,-0.45,5.74,5.78
4.802011013031006,0.58,-0.97,6.03,6.13
4.812195777893066,0.63,-1.42,6.27,6.45
4.821908950805664,0.66,-1.71,6.21,6.47
4.832123756408691,0.61,-1.92,5.58,5.93
4.853023052215576,0.56,-2.24,4.66,5.2
4.8548359870910645,0.49,-2.62,3.62,4.49
4.861363887786865,0.5,-2.95,2.55,3.93
4.8715009689331055,0.6,-2.98,1.45,3.36
4.881344795227051,0.79,-2.86,0.24,2.97
4.891544818878174,0.98,-2.73,-0.84,3.01
4.902091026306152,1.12,-2.52,-1.86,3.32
4.91200590133667,1.09,-2.17,-2.63,3.57
4.92198371887207,0.93,-1.89,-3.14,3.78
4.932049751281738,0.82,-1.78,-3.67,4.16
4.952439785003662,0.7,-1.57,-4.03,4.38
4.954263925552368,0.6,-1.38,-4.26,4.51
4.961345911026001,0.49,-1.24,-4.34,4.54
4.971282005310059,0.3,-1.12,-4.4,4.55
4.981331825256348,0.15,-1.03,-4.4,4.52
4.991481781005859,0.04,-0.94,-4.35,4.45
5.001344919204712,-0.07,-0.84,-4.33,4.41
5.01229190826416,-0.14,-0.73,-4.27,4.33
5.021860837936401,-0.19,-0.57,-4.26,4.3
5.03204083442688,-0.22,-0.41,-4.27,4.29
5.05172872543335,-0.3,-0.27,-4.29,4.3
5.053355932235718,-0.37,-0.22,-4.33,4.35
5.061338901519775,-0.46,-0.2,-4.26,4.28
5.071321964263916,-0.53,-0.16,-4.08,4.11
5.081344842910767,-0.59,-0.07,-3.93,3.97
5.091450929641724,-0.64,0.04,-3.88,3.93
5.102063894271851,-0.63,0.12,-3.87,3.92
5.1122050285339355,-0.64,0.21,-3.81,3.86
5.122161865234375,-0.53,0.31,-3.56,3.61
5.132075786590576,-0.43,0.53,-3.12,3.19
5.1527488231658936,-0.25,0.76,-2.51,2.63
5.154552936553955,-0.02,0.97,-1.87,2.1
5.161383867263794,0.26,1.21,-1.34,1.82
5.171505928039551,0.54,1.37,-0.81,1.68
5.181372880935669,0.67,1.4,-0.18,1.56
5.1916139125823975,0.6,1.2,0.64,1.48
5.201939821243286,0.29,0.96,1.54,1.83
5.2123918533325195,-0.09,0.78,2.45,2.57
5.221930980682373,-0.31,0.87,3.13,3.26
5.2324488162994385,-0.44,1.07,3.72,3.89
5.2513017654418945,-0.43,1.17,4.23,4.4
5.253149032592773,-0.33,1.08,4.65,4.78
5.261356830596924,-0.2,0.87,4.84,4.92
5.271585941314697,-0.07,0.77,4.66,4.72
5.281408786773682,0.0,0.8,4.35,4.42
5.291485786437988,0.03,0.94,3.96,4.07
5.30213189125061,0.0,1.14,3.66,3.83
5.312413930892944,-0.12,1.28,3.34,3.57
5.321894884109497,-0.27,1.39,3.15,3.45
5.3323140144348145,-0.44,1.53,3.03,3.42
5.352680921554565,-0.48,1.5,3.1,3.47
5.354074954986572,-0.46,1.17,3.45,3.67
5.361349821090698,-0.31,0.63,3.9,3.96
5.371562957763672,-0.01,0.06,4.4,4.4
5.381438732147217,0.25,-0.44,4.94,4.96
5.39152193069458,0.35,-0.77,5.3,5.36
5.402085781097412,0.29,-0.98,5.38,5.47
5.412110805511475,0.03,-1.22,5.04,5.18
5.42230486869812,-0.35,-1.51,4.31,4.58
5.432223796844482,-0.65,-1.85,3.25,3.79
5.453409910202026,-0.84,-2.21,2.02,3.1
5.455108880996704,-0.97,-2.45,0.83,2.76
5.461467742919922,-1.13,-2.37,-0.01,2.62
5.471499919891357,-1.37,-2.21,-0.79,2.71
5.481411933898926,-1.55,-2.1,-1.27,2.9
5.491477966308594,-1.6,-1.91,-1.61,2.96
5.502248764038086,-1.65,-1.78,-1.89,3.07
5.512451887130737,-1.73,-1.69,-2.03,3.15
5.52193284034729,-1.73,-1.6,-2.27,3.27
5.532509803771973,-1.63,-1.56,-2.51,3.37
5.553477764129639,-1.37,-1.6,-2.69,3.41
5.55520486831665,-0.99,-1.64,-2.81,3.4
5.561184883117676,-0.63,-1.58,-2.81,3.28
5.571370840072632,-0.33,-1.4,-2.92,3.25
5.581323862075806,-0.11,-1.19,-2.99,3.21
5.591562747955322,0.01,-0.97,-3.06,3.21
5.602359771728516,0.05,-0.76,-3.09,3.18
5.612260818481445,0.09,-0.54,-3.17,3.21
5.62221097946167,0.1,-0.33,-3.32,3.33
5.632894039154053,0.03,-0.13,-3.4,3.4
5.654181957244873,0.0,-0.02,-3.4,3.4
5.655677795410156,0.04,0.18,-3.48,3.48
5.661576747894287,0.07,0.48,-3.56,3.59
5.671539783477783,0.1,0.69,-3.43,3.5
5.681373834609985,0.21,0.71,-2.94,3.03
5.691971778869629,0.26,0.68,-2.3,2.41
5.70190691947937,0.24,0.74,-1.5,1.68
5.712180852890015,0.22,0.9,-0.78,1.21
5.7219157218933105,0.24,1.02,-0.41,1.12
5.7321977615356445,0.34,1.02,-0.54,1.2
5.75273585319519,0.39,0.9,-0.61,1.15
5.75439977645874,0.32,0.65,-0.65,0.97
5.761265754699707,0.35,0.35,-0.54,0.73
5.77158784866333,0.45,0.18,-0.31,0.57
5.781274795532227,0.45,0.21,-0.18,0.52
5.791589736938477,0.5,0.23,0.0,0.55
5.802254915237427,0.61,0.29,0.35,0.76
5.812556743621826,0.84,0.45,1.02,1.39
5.822175025939941,1.12,0.87,0.41,1.47
5.83252477645874,1.31,1.19,-0.2,1.78
5.855518817901611,0.92,1.28,-0.06,1.57
5.857269763946533,0.75,1.03,0.6,1.4
5.861654758453369,0.63,0.85,1.01,1.46
5.871596813201904,0.58,0.74,1.3,1.6
5.881488800048828,0.59,0.73,1.45,1.72
5.891633987426758,0.66,0.85,1.4,1.76
5.90141487121582,0.74,1.16,1.27,1.87
5.912664890289307,0.83,1.44,1.15,2.02
5.922152042388916,0.93,1.39,1.1,2.0
5.932538986206055,1.05,0.9,1.25,1.86
5.953824043273926,1.2,0.07,1.7,2.08
5.9556028842926025,1.27,-0.55,2.3,2.68
5.961413860321045,1.27,-0.81,2.87,3.24
5.971688747406006,1.38,-1.1,3.54,3.95
5.981517791748047,1.44,-1.56,4.36,4.84
5.99160099029541,1.29,-1.98,5.0,5.53
6.002063751220703,1.04,-2.05,4.95,5.45
6.012526988983154,0.87,-1.91,4.23,4.72
6.022305011749268,0.86,-1.87,3.15,3.76
6.032516002655029,0.92,-2.02,1.98,2.97
6.053694725036621,0.94,-2.14,0.92,2.51
6.05532693862915,0.89,-2.05,0.06,2.23
6.061476707458496,0.79,-1.73,-0.65,2.0
6.071502923965454,0.7,-1.47,-1.27,2.06
6.081499814987183,0.66,-1.43,-1.72,2.33
6.091630935668945,0.62,-1.47,-2.05,2.59
6.101538896560669,0.53,-1.55,-2.25,2.78
6.112452983856201,0.35,-1.61,-2.33,2.85
6.122109889984131,0.14,-1.63,-2.4,2.9
6.132832050323486,-0.02,-1.65,-2.54,3.02
6.1543779373168945,-0.13,-1.63,-2.77,3.21
6.155911922454834,-0.23,-1.58,-3.0,3.39
6.161489963531494,-0.34,-1.53,-3.21,3.57
6.171564817428589,-0.42,-1.46,-3.45,3.76
6.181510925292969,-0.5,-1.43,-3.67,3.97
6.191534996032715,-0.57,-1.39,-3.76,4.04
6.202211856842041,-0.67,-1.29,-3.77,4.04
6.212201833724976,-0.76,-1.18,-3.65,3.91
6.2223219871521,-0.88,-1.01,-3.51,3.75
6.232378959655762,-0.97,-0.84,-3.53,3.75
6.2542619705200195,-1.0,-0.66,-3.62,3.81
6.255782842636108,-0.99,-0.46,-3.63,3.79
6.26151704788208,-1.01,-0.22,-3.66,3.8
6.271636962890625,-0.97,0.03,-3.67,3.79
6.281608819961548,-0.91,0.2,-3.54,3.66
6.291606903076172,-0.85,0.27,-3.29,3.4
6.3020899295806885,-0.77,0.29,-2.99,3.1
6.312414884567261,-0.73,0.34,-2.63,2.75
6.32202672958374,-0.66,0.45,-2.17,2.31
6.332502841949463,-0.61,0.64,-1.57,1.8
6.354207992553711,-0.59,0.86,-1.04,1.47
6.355910778045654,-0.63,1.16,-0.72,1.5
6.361507892608643,-0.66,1.5,-0.41,1.68
6.371665954589844,-0.6,1.72,-0.06,1.82
6.38156270980835,-0.51,1.74,0.33,1.84
6.391716003417969,-0.46,1.76,0.9,2.02
6.402117729187012,-0.5,1.87,1.52,2.46
6.41213583946228,-0.49,1.94,2.0,2.82
6.422372817993164,-0.38,1.9,2.29,2.99
6.43245792388916,-0.24,1.75,2.66,3.19
6.4531660079956055,-0.15,1.6,3.06,3.45
6.4549338817596436,-0.18,1.49,3.25,3.57
6.461572885513306,-0.17,1.48,3.49,3.79
6.471720933914185,-0.1,1.5,3.61,3.91
6.481500864028931,0.01,1.45,3.71,3.98
6.49164891242981,0.0,1.55,3.97,4.26
6.5015459060668945,-0.1,1.74,4.44,4.76
6.512406826019287,-0.22,1.64,5.08,5.34
6.522035837173462,-0.34,1.24,5.69,5.83
6.532872915267944,-0.37,0.79,6.14,6.2
6.552000045776367,-0.24,0.27,6.39,6.4
6.553354740142822,-0.01,-0.31,6.54,6.54
6.56117582321167,0.15,-0.8,6.53,6.58
6.571730852127075,0.11,-1.14,6.35,6.45
6.581590890884399,-0.05,-1.3,5.84,5.98
6.591653823852539,-0.21,-1.35,5.02,5.2
6.602306842803955,-0.31,-1.5,3.98,4.26
6.61213493347168,-0.44,-1.79,2.98,3.5
6.622478008270264,-0.69,-2.07,2.02,2.97
6.632446765899658,-0.93,-2.17,1.15,2.62
6.653100967407227,-1.1,-2.05,0.33,2.34
6.654546737670898,-1.22,-1.88,-0.45,2.28
6.661218881607056,-1.26,-1.8,-1.06,2.43
6.671848773956299,-1.17,-1.79,-1.42,2.56
6.681570053100586,-0.98,-1.75,-1.73,2.64
6.691638946533203,-0.94,-1.63,-2.3,2.97
6.701635837554932,-0.87,-1.53,-2.6,3.13
6.712370872497559,-0.77,-1.44,-2.88,3.31
6.722509860992432,-0.69,-1.4,-3.22,3.57
6.732517719268799,-0.57,-1.36,-3.59,3.88
6.753482818603516,-0.41,-1.29,-3.95,4.17
6.755116939544678,-0.24,-1.17,-4.29,4.45
6.761376857757568,-0.08,-1.04,-4.55,4.66
6.77177095413208,0.07,-0.9,-4.69,4.77
6.7815327644348145,0.15,-0.77,-4.8,4.86
6.791712760925293,0.11,-0.73,-4.81,4.86
6.802053928375244,0.03,-0.7,-4.78,4.83
6.812309741973877,0.01,-0.69,-4.72,4.77
6.822399854660034,0.03,-0.65,-4.5,4.54
6.832660913467407,-0.01,-0.48,-4.36,4.38
6.8521928787231445,-0.01,-0.28,-4.16,4.16
6.853413820266724,-0.01,-0.1,-3.85,3.85
6.861273765563965,0.02,0.13,-3.56,3.56
6.871845722198486,0.02,0.4,-3.29,3.31
6.881441831588745,0.05,0.67,-2.91,2.98
6.891742706298828,0.05,0.83,-2.52,2.65
6.901641845703125,0.03,0.88,-2.11,2.28
6.911679744720459,0.04,1.0,-1.65,1.92
6.92257285118103,0.12,1.15,-1.11,1.6
6.932421922683716,0.19,1.29,-0.52,1.4
6.951953887939453,0.19,1.29,0.08,1.3
6.9531779289245605,0.16,1.27,0.6,1.41
6.961275815963745,0.12,1.27,1.07,1.66
6.972059726715088,0.13,1.31,1.44,1.95
6.981531858444214,0.17,1.38,1.72,2.21
6.991773843765259,0.23,1.42,2.04,2.49
7.001657962799072,0.33,1.43,2.42,2.83
7.012404918670654,0.45,1.39,2.77,3.13
7.022677898406982,0.5,1.3,3.02,3.32
7.032644748687744,0.52,1.27,3.3,3.57
7.055100917816162,0.62,1.26,3.48,3.75
7.056807994842529,0.8,1.24,3.53,3.82
7.061339855194092,0.94,1.32,3.39,3.75
7.0715508460998535,1.06,1.49,3.13,3.62
7.0815229415893555,1.19,1.55,3.04,3.61
7.091814994812012,1.29,1.33,3.21,3.7
7.101599931716919,1.35,0.89,3.49,3.84
7.1124267578125,1.44,0.43,3.84,4.12
7.122622966766357,1.37,0.06,4.11,4.33
7.132724761962891,1.3,-0.22,4.36,4.55
7.153710842132568,1.33,-0.68,4.54,4.77
7.155082702636719,1.42,-1.25,4.54,4.91
7.1612868309021,1.43,-1.62,4.34,4.84
7.1718430519104,1.3,-1.64,3.74,4.28
7.1814868450164795,1.24,-1.55,2.8,3.43
7.191658020019531,1.31,-1.65,1.72,2.71
7.201664924621582,1.4,-1.83,0.73,2.41
7.212103843688965,1.42,-1.88,-0.1,2.35
7.222462892532349,1.34,-1.71,-0.83,2.32
7.2324910163879395,1.27,-1.45,-1.42,2.39
7.254673004150391,1.18,-1.27,-1.93,2.59
7.25608491897583,1.1,-1.21,-2.32,2.83
7.261445045471191,1.01,-1.25,-2.61,3.06
7.271556854248047,0.94,-1.29,-2.76,3.18
7.281661033630371,0.87,-1.23,-2.89,3.25
7.291805744171143,0.79,-1.14,-2.99,3.29
7.302273750305176,0.75,-1.03,-3.12,3.37
7.312410831451416,0.7,-0.98,-3.29,3.5
7.322764873504639,0.64,-0.95,-3.42,3.6
7.3328399658203125,0.56,-0.89,-3.53,3.68
7.354899883270264,0.46,-0.85,-3.59,3.71
7.356335878372192,0.34,-0.79,-3.56,3.66
7.36143684387207,0.23,-0.72,-3.5,3.58
7.371868848800659,0.12,-0.68,-3.41,3.47
7.381717920303345,0.01,-0.64,-3.33,3.39
7.39169979095459,-0.11,-0.58,-3.25,3.3
7.40159797668457,-0.18,-0.53,-3.19,3.23
7.412708759307861,-0.2,-0.46,-3.13,3.16
7.42258882522583,-0.23,-0.36,-3.02,3.05
7.432466983795166,-0.23,-0.2,-2.86,2.87
7.455239772796631,-0.23,-0.06,-2.78,2.79
7.456463813781738,-0.2,0.06,-2.67,2.67
7.461428880691528,-0.14,0.19,-2.46,2.47
7.471575736999512,-0.13,0.32,-2.14,2.16
7.481513023376465,-0.13,0.42,-1.69,1.74
7.491675853729248,-0.13,0.48,-1.09,1.19
7.501536846160889,-0.13,0.54,-0.46,0.72
7.51251482963562,-0.08,0.7,0.11,0.71
7.5223588943481445,-0.06,0.92,0.67,1.13
7.532517910003662,-0.12,1.01,1.29,1.64
7.553625822067261,-0.21,0.96,1.99,2.21
7.555157899856567,-0.33,0.78,2.78,2.9
7.561670780181885,-0.45,0.59,3.49,3.56
7.571565866470337,-0.52,0.56,4.06,4.13
7.581708908081055,-0.58,0.66,4.31,4.39
7.591758728027344,-0.63,0.78,4.26,4.37
7.60188889503479,-0.68,0.93,3.93,4.09
7.612509727478027,-0.73,1.13,3.39,3.64
7.622406005859375,-0.78,1.37,2.84,3.24
7.632987022399902,-0.8,1.54,2.32,2.89
7.6539318561553955,-0.82,1.51,2.1,2.71
7.655418872833252,-0.86,1.26,2.22,2.69
7.661747932434082,-0.93,0.83,2.54,2.82
7.671515941619873,-0.86,0.34,3.07,3.2
7.681674957275391,-0.59,-0.2,3.79,3.84
7.6918768882751465,-0.34,-0.72,4.57,4.63
7.7022669315338135,-0.23,-1.01,5.18,5.28
7.712316989898682,-0.26,-1.1,5.42,5.53
7.722624778747559,-0.44,-1.02,4.86,4.98
7.7324888706207275,-0.51,-1.19,4.12,4.31
7.75518798828125,-0.55,-1.53,3.19,3.58
7.756552696228027,-0.78,-1.84,2.07,2.87
7.761445045471191,-0.99,-1.96,1.07,2.44
7.771595001220703,-1.25,-1.93,0.2,2.3
7.781702041625977,-1.48,-1.81,-0.59,2.41
7.791892051696777,-1.65,-1.63,-1.23,2.62
7.801631927490234,-1.78,-1.49,-1.63,2.83
7.812751770019531,-1.82,-1.44,-1.88,2.98
7.822426795959473,-1.8,-1.42,-2.01,3.04
7.83263087272644,-1.71,-1.4,-2.1,3.04
7.855850696563721,-1.59,-1.41,-2.2,3.05
7.857412815093994,-1.41,-1.45,-2.28,3.04
7.861374855041504,-1.3,-1.46,-2.44,3.12
7.871614933013916,-1.28,-1.45,-2.67,3.29
7.881657838821411,-1.2,-1.43,-2.94,3.48
7.89186692237854,-1.09,-1.41,-3.23,3.68
7.901665925979614,-1.01,-1.37,-3.51,3.9
7.912717819213867,-0.99,-1.31,-3.73,4.07
7.922524929046631,-0.98,-1.2,-3.92,4.21
7.933306932449341,-0.94,-1.03,-4.04,4.27
7.955593824386597,-0.85,-0.83,-4.21,4.37
7.95689582824707,-0.72,-0.66,-4.39,4.49
7.961363792419434,-0.55,-0.48,-4.32,4.38
7.9716057777404785,-0.5,-0.3,-4.18,4.22
7.981710910797119,-0.41,-0.19,-3.99,4.01
7.991879940032959,-0.26,-0.12,-3.76,3.77
8.002667903900146,-0.14,-0.09,-3.21,3.21
8.01265001296997,-0.16,0.02,-2.67,2.67
8.01966381072998,-0.21,0.22,-2.25,2.27
8.030258893966675,-0.15,0.45,-1.79,1.85
8.049462795257568,-0.15,0.51,-1.42,1.51
8.050671815872192,-0.14,0.54,-1.19,1.31
8.059175968170166,-0.05,0.69,-0.86,1.1
8.0706467628479,-0.01,0.84,-0.53,0.99
8.079187870025635,0.12,0.98,-0.26,1.02
8.089292049407959,0.35,1.13,0.05,1.18
8.100318908691406,0.51,1.29,0.48,1.46
8.110115051269531,0.66,1.37,0.98,1.8
8.120061874389648,0.78,1.34,1.51,2.16
8.130055904388428,0.8,1.26,2.06,2.54
8.14985704421997,0.83,1.18,2.6,2.97
8.15110993385315,0.84,1.05,3.07,3.35
8.159080982208252,0.84,0.92,3.36,3.58
8.171137809753418,0.82,1.0,3.55,3.77
8.179194927215576,0.78,1.21,3.56,3.84
8.189291954040527,0.76,1.46,3.4,3.77
8.200244903564453,0.83,1.69,3.18,3.69
8.209990978240967,0.97,1.66,3.07,3.62
8.219918727874756,1.18,1.34,3.15,3.62
8.229681015014648,1.31,0.75,3.44,3.75
8.25089979171753,1.23,-0.01,3.88,4.07
8.25282096862793,1.13,-0.68,4.31,4.5
8.259215831756592,1.03,-1.13,4.68,4.92
8.271230697631836,1.0,-1.32,4.97,5.23
8.279195785522461,1.11,-1.29,4.95,5.23
8.289076805114746,1.26,-1.14,4.41,4.72
8.300522804260254,1.42,-1.09,3.46,3.89
8.309744834899902,1.48,-1.31,2.43,3.13
8.320069789886475,1.44,-1.55,1.53,2.61
8.329773902893066,1.42,-1.55,0.68,2.2
8.351663827896118,1.32,-1.4,-0.12,1.92
8.35335397720337,1.2,-1.22,-0.77,1.87
8.358967781066895,1.08,-1.12,-1.24,1.98
8.371335983276367,0.93,-1.14,-1.56,2.14
8.379265785217285,0.79,-1.21,-1.73,2.25
8.389139890670776,0.67,-1.24,-1.84,2.31
8.400238990783691,0.59,-1.22,-1.94,2.36
8.40974473953247,0.49,-1.21,-2.0,2.38
8.4199538230896,0.4,-1.18,-2.06,2.4
8.429790019989014,0.35,-1.18,-2.19,2.51
8.449846744537354,0.26,-1.17,-2.34,2.62
8.451295852661133,0.19,-1.12,-2.53,2.77
8.459022998809814,0.1,-1.06,-2.75,2.94
8.471654891967773,0.01,-0.96,-3.0,3.14
8.47923493385315,-0.08,-0.79,-3.25,3.34
8.48929500579834,-0.13,-0.61,-3.52,3.57
8.500062942504883,-0.13,-0.47,-3.76,3.79
8.509896755218506,-0.14,-0.34,-3.92,3.93
8.520044803619385,-0.15,-0.21,-4.05,4.05
8.529624938964844,-0.19,-0.1,-4.05,4.05
8.55179500579834,-0.25,0.05,-3.96,3.96
8.553581714630127,-0.34,0.19,-3.75,3.77
8.558879852294922,-0.43,0.33,-3.5,3.54
8.571362018585205,-0.46,0.47,-3.17,3.23
8.579233884811401,-0.42,0.52,-2.83,2.9
8.589293956756592,-0.34,0.44,-2.46,2.52
8.600230932235718,-0.25,0.4,-2.01,2.06
8.609976768493652,-0.26,0.42,-1.52,1.59
8.620097875595093,-0.35,0.5,-0.98,1.15
8.629847049713135,-0.49,0.63,-0.44,0.91
8.651735782623291,-0.61,0.74,0.09,0.96
8.653304815292358,-0.66,0.78,0.61,1.19
8.660578727722168,-0.7,0.79,1.14,1.55
8.672327995300293,-0.69,0.75,1.66,1.94
8.680507898330688,-0.6,0.65,2.14,2.31
8.690476894378662,-0.53,0.46,2.44,2.53
8.701372861862183,-0.37,0.28,2.8,2.83
8.711230754852295,-0.23,0.19,3.12,3.13
8.72148084640503,-0.25,0.3,3.22,3.24
8.731096744537354,-0.26,0.47,3.18,3.22
8.753430843353271,-0.35,0.65,2.99,3.07
8.754837036132812,-0.45,0.9,2.82,2.99
8.76039171218872,-0.44,0.98,2.85,3.04
8.771981716156006,-0.41,0.74,3.07,3.18
8.780605792999268,-0.38,0.21,3.54,3.56
8.790747880935669,-0.3,-0.36,4.17,4.19
8.800611019134521,-0.21,-0.74,4.68,4.74
8.811482906341553,-0.19,-0.94,4.97,5.06
8.821491718292236,-0.07,-0.89,5.02,5.09
8.831268787384033,0.04,-0.81,4.71,4.77
8.855321884155273,0.14,-0.81,4.15,4.23
8.856703758239746,0.11,-0.89,3.28,3.4
8.860461711883545,-0.11,-1.03,2.32,2.54
8.871716976165771,-0.36,-1.14,1.5,1.91
8.88050889968872,-0.6,-1.14,0.78,1.5
8.890724897384644,-0.81,-1.04,0.15,1.32
8.901311874389648,-0.94,-0.93,-0.41,1.38
8.911027908325195,-0.99,-0.91,-0.74,1.53
8.921560764312744,-1.05,-0.96,-0.84,1.65
8.931443929672241,-1.07,-1.06,-0.86,1.73
8.955657005310059,-1.06,-1.17,-0.88,1.8
8.957075834274292,-0.99,-1.22,-0.97,1.84
8.960161924362183,-0.85,-1.21,-1.13,1.86
8.972087860107422,-0.71,-1.16,-1.37,1.93
8.980430841445923,-0.53,-1.11,-1.74,2.13
8.990497827529907,-0.37,-1.09,-2.14,2.42
9.00050973892212,-0.26,-1.07,-2.55,2.77
9.01151990890503,-0.18,-1.03,-2.97,3.14
9.021298885345459,-0.09,-0.95,-3.35,3.48
9.031699895858765,-0.03,-0.83,-3.72,3.81
9.05450987815857,-0.04,-0.68,-3.99,4.04
9.055898904800415,-0.07,-0.57,-4.18,4.21
9.06047773361206,-0.12,-0.48,-4.27,4.29
9.072181701660156,-0.09,-0.38,-4.29,4.3
9.080620765686035,-0.12,-0.23,-4.34,4.34
9.090747833251953,-0.14,-0.04,-4.37,4.37
9.101340770721436,-0.1,0.12,-4.39,4.39
9.111064910888672,-0.04,0.24,-4.33,4.33
9.121432781219482,0.1,0.34,-4.19,4.2
9.131369829177856,0.26,0.39,-3.89,3.91
9.152957916259766,0.39,0.38,-3.51,3.55
9.154342889785767,0.52,0.37,-3.08,3.14
9.160398006439209,0.63,0.41,-2.64,2.74
9.172476768493652,0.71,0.47,-2.22,2.37
9.180905818939209,0.82,0.52,-1.77,2.01
9.190783023834229,0.96,0.6,-1.3,1.72
9.200511932373047,1.1,0.75,-0.82,1.56
9.211458921432495,1.24,0.91,-0.31,1.56
9.221585750579834,1.36,1.02,0.13,1.7
9.231140851974487,1.43,1.06,0.69,1.9
9.25489592552185,1.42,1.02,1.36,2.21
9.256240844726562,1.34,0.93,1.92,2.51
9.260372877120972,1.42,0.9,2.46,2.97
9.272597789764404,1.54,0.89,2.77,3.29
9.280605792999268,1.6,0.97,3.05,3.57
9.290676832199097,1.7,1.2,3.29,3.89
9.300562858581543,1.72,1.35,3.48,4.1
9.310812950134277,1.64,1.44,3.75,4.33
9.32158088684082,1.52,1.47,4.08,4.59
9.331305027008057,1.48,1.33,4.49,4.91
9.354373931884766,1.47,0.92,5.12,5.4
9.355708837509155,1.4,0.19,5.92,6.08
9.360487937927246,1.21,-0.52,6.68,6.8
9.372428894042969,0.89,-0.96,6.98,7.1
9.380542755126953,0.66,-1.25,6.89,7.03
9.390588760375977,0.58,-1.41,6.52,6.69
9.400650978088379,0.6,-1.44,5.77,5.97
9.411629915237427,0.56,-1.49,4.68,4.94
9.421223878860474,0.51,-1.72,3.52,3.95
9.43120288848877,0.41,-1.88,2.48,3.13
9.452886819839478,0.34,-1.82,1.47,2.36
9.454526901245117,0.32,-1.7,0.5,1.8
9.460449695587158,0.3,-1.61,-0.44,1.69
9.472786903381348,0.26,-1.6,-1.16,1.99
9.480631828308105,0.22,-1.63,-1.71,2.37
9.490747928619385,0.15,-1.7,-2.15,2.74
9.50076675415039,0.11,-1.77,-2.53,3.08
9.511569023132324,0.05,-1.79,-2.84,3.35
9.521554946899414,-0.07,-1.74,-3.08,3.53
9.531432867050171,-0.17,-1.68,-3.33,3.73
9.556440830230713,-0.27,-1.64,-3.57,3.93
9.557761907577515,-0.37,-1.62,-3.76,4.11
9.560171842575073,-0.44,-1.62,-3.94,4.28
9.573318004608154,-0.47,-1.62,-4.1,4.43
9.580770015716553,-0.52,-1.58,-4.12,4.44
9.591055870056152,-0.61,-1.55,-4.07,4.39
9.601751804351807,-0.71,-1.5,-3.97,4.3
9.611332893371582,-0.81,-1.43,-3.83,4.16
9.621511936187744,-0.91,-1.38,-3.74,4.08
9.631299018859863,-0.97,-1.28,-3.71,4.04
9.655807971954346,-1.0,-1.14,-3.58,3.88
9.657413959503174,-1.01,-0.94,-3.39,3.66
9.660351753234863,-0.94,-0.76,-3.24,3.45
9.67390775680542,-0.9,-0.53,-3.0,3.17
9.680729866027832,-0.82,-0.25,-2.75,2.88
9.690828800201416,-0.7,0.04,-2.5,2.59
9.700637817382812,-0.53,0.33,-2.26,2.34
9.711466789245605,-0.37,0.57,-1.95,2.06
9.72156286239624,-0.2,0.68,-1.67,1.81
9.731175899505615,-0.07,0.74,-1.43,1.61
9.75614881515503,-0.03,0.94,-1.23,1.54
9.757876873016357,-0.07,1.22,-0.98,1.56
9.760335922241211,-0.12,1.4,-0.69,1.56
9.773582935333252,-0.13,1.45,-0.44,1.52
9.780698776245117,-0.13,1.46,-0.08,1.46
9.79085397720337,-0.05,1.51,0.3,1.54
9.800923824310303,0.1,1.54,0.68,1.68
9.811639785766602,0.22,1.56,1.22,1.99
9.821698904037476,0.24,1.55,1.84,2.41
9.83182692527771,0.22,1.53,2.39,2.84
9.856276988983154,0.18,1.5,2.8,3.18
9.857926845550537,0.15,1.5,3.12,3.46
9.860322952270508,0.12,1.51,3.27,3.6
9.873154878616333,-0.01,1.55,3.37,3.7
9.880743980407715,-0.21,1.73,3.4,3.82
9.890525817871094,-0.39,2.06,3.46,4.04
9.900722980499268,-0.41,2.12,3.89,4.44
9.911466836929321,-0.28,1.59,4.57,4.84
9.921535968780518,-0.12,0.93,5.06,5.14
9.93140983581543,-0.05,0.35,5.33,5.34
9.954445838928223,-0.02,-0.18,5.57,5.57
9.956117868423462,-0.12,-0.49,5.6,5.62
9.960559844970703,-0.29,-0.62,5.42,5.46
9.973886013031006,-0.46,-0.79,5.01,5.09
9.980714797973633,-0.64,-1.02,4.3,4.46
9.990639925003052,-0.87,-1.19,3.53,3.82
10.000704765319824,-1.05,-1.27,2.76,3.21
10.011548042297363,-1.16,-1.36,1.98,2.66
10.021456718444824,-1.24,-1.41,1.25,2.25
10.031511783599854,-1.32,-1.39,0.57,1.99
10.056458950042725,-1.35,-1.33,0.02,1.89
10.058043956756592,-1.3,-1.28,-0.41,1.86
10.060365915298462,-1.27,-1.35,-0.86,2.04
10.073778867721558,-1.17,-1.47,-1.25,2.25
10.080811023712158,-1.01,-1.57,-1.67,2.5
10.09054684638977,-0.78,-1.61,-2.06,2.72
10.100767850875854,-0.5,-1.62,-2.48,3.0
10.11156702041626,-0.29,-1.67,-2.9,3.35
10.1216139793396,-0.16,-1.73,-3.24,3.67
10.131396770477295,-0.01,-1.78,-3.55,3.97
10.155349731445312,0.11,-1.77,-3.8,4.19
10.156972885131836,0.19,-1.68,-4.0,4.34
10.16041088104248,0.26,-1.55,-4.18,4.46
10.174077987670898,0.29,-1.43,-4.33,4.56
10.18066692352295,0.31,-1.31,-4.4,4.6
10.190562725067139,0.3,-1.21,-4.43,4.6
10.20072078704834,0.28,-1.12,-4.47,4.61
10.21155071258545,0.3,-1.02,-4.38,4.5
10.221595764160156,0.31,-0.83,-4.24,4.33
10.231390953063965,0.27,-0.58,-3.95,4.0
10.25621485710144,0.28,-0.33,-3.57,3.59
10.257843971252441,0.29,-0.12,-3.08,3.09
10.260313034057617,0.29,0.04,-2.61,2.62
10.273895740509033,0.3,0.15,-2.15,2.17
10.280731916427612,0.32,0.26,-1.65,1.7
10.290597915649414,0.33,0.42,-1.22,1.33
10.300708770751953,0.42,0.63,-0.87,1.15
10.311832904815674,0.51,0.86,-0.62,1.17
10.321695804595947,0.7,1.13,-0.48,1.41
10.331585884094238,0.89,1.36,-0.31,1.65
10.355128765106201,1.01,1.63,-0.08,1.91
10.356719017028809,1.01,1.87,0.28,2.14
10.360635757446289,0.85,1.99,0.75,2.29
10.37391996383667,0.66,1.99,1.27,2.45
10.380791902542114,0.52,1.87,1.84,2.67
10.390904903411865,0.47,1.68,2.5,3.04
10.4007408618927,0.48,1.51,3.05,3.43
10.411815881729126,0.53,1.47,3.48,3.81
10.421617031097412,0.64,1.56,3.72,4.08
10.43161392211914,0.72,1.63,3.82,4.21
10.455695867538452,0.77,1.67,3.82,4.23
10.45734190940857,0.78,1.61,3.73,4.13
10.46034574508667,0.73,1.71,3.6,4.05
10.47420072555542,0.72,1.75,3.55,4.02
10.480778932571411,0.82,0.95,4.12,4.3
10.49066972732544,0.89,-0.24,4.89,4.97
10.501678943634033,0.68,-0.94,5.29,5.41
10.511477947235107,0.49,-1.06,5.48,5.6
10.521801948547363,0.61,-1.07,5.25,5.39
10.531383037567139,0.89,-1.38,4.78,5.05
10.554271697998047,1.07,-1.77,4.09,4.58
10.555924892425537,1.16,-2.06,3.05,3.85
10.560484886169434,1.17,-2.16,1.89,3.09
10.574206829071045,1.14,-2.11,0.77,2.51
10.580731868743896,1.1,-2.02,-0.27,2.31
10.590730905532837,1.09,-1.95,-1.17,2.52
10.600753784179688,1.07,-1.88,-1.89,2.87
10.611884832382202,1.0,-1.85,-2.41,3.19
10.621500015258789,0.9,-1.85,-2.7,3.39
10.63147783279419,0.72,-1.85,-2.86,3.48
10.655683994293213,0.54,-1.84,-2.97,3.53
10.657845973968506,0.33,-1.85,-3.05,3.58
10.66042184829712,0.16,-1.86,-3.19,3.69
10.674389839172363,0.04,-1.86,-3.42,3.89
10.680660724639893,-0.07,-1.88,-3.47,3.94
10.690675735473633,-0.08,-1.82,-3.47,3.91
10.701716899871826,-0.23,-1.78,-3.61,4.03
10.711865901947021,-0.34,-1.73,-3.71,4.1
10.721689701080322,-0.44,-1.6,-3.81,4.15
10.73183298110962,-0.56,-1.38,-3.87,4.14
10.754827976226807,-0.66,-1.23,-3.98,4.21
10.756453037261963,-0.76,-1.08,-3.98,4.19
10.760589838027954,-0.86,-0.9,-3.87,4.06
10.774372816085815,-0.97,-0.73,-3.8,3.98
10.780797004699707,-0.99,-0.6,-3.69,3.86
10.79075574874878,-0.93,-0.46,-3.43,3.58
10.800814867019653,-0.94,-0.28,-3.1,3.25
10.811859846115112,-0.93,-0.13,-2.66,2.82
10.82149600982666,-0.79,-0.05,-2.18,2.31
10.83170485496521,-0.61,-0.08,-1.66,1.77
10.855705738067627,-0.48,-0.06,-1.07,1.17
10.857406854629517,-0.44,0.07,-0.41,0.6
10.860615730285645,-0.46,0.25,0.21,0.56
10.874467849731445,-0.45,0.3,0.71,0.89
10.880856037139893,-0.28,0.23,1.28,1.33
10.890783786773682,-0.1,0.14,1.89,1.89
10.900869846343994,0.04,0.08,2.34,2.34
10.911142826080322,0.13,0.12,2.64,2.64
10.921848773956299,0.1,0.19,2.84,2.84
10.931792736053467,-0.01,0.51,2.74,2.78
10.954108715057373,-0.06,1.16,2.38,2.64
10.955749988555908,0.13,1.5,2.26,2.71
10.960649013519287,0.28,1.27,2.67,2.96
10.974593877792358,0.11,1.04,3.18,3.34
10.980914831161499,0.0,0.97,3.77,3.89
10.990799903869629,0.25,0.98,4.32,4.43
11.000848770141602,0.58,0.9,4.71,4.83
11.01148271560669,0.96,0.67,5.15,5.28
11.021793842315674,1.17,0.49,5.54,5.68
11.031383037567139,1.16,0.22,5.86,5.97
11.054790019989014,0.98,-0.24,5.92,6.0
11.05647087097168,0.74,-0.71,5.54,5.63
11.060773849487305,0.45,-0.89,4.62,4.72
11.074826717376709,0.16,-0.85,3.33,3.44
11.08082389831543,-0.07,-0.81,2.02,2.17
11.090802907943726,-0.28,-0.94,0.8,1.26
11.101018905639648,-0.44,-1.07,-0.12,1.16
11.111124038696289,-0.62,-1.07,-0.94,1.55
11.121754884719849,-0.86,-0.98,-1.63,2.08
11.131548881530762,-0.99,-0.87,-2.21,2.57
11.153738975524902,-1.02,-0.81,-2.55,2.86
11.155346870422363,-1.03,-0.76,-2.67,2.96
11.160781860351562,-1.11,-0.74,-2.78,3.08
11.1750328540802,-1.15,-0.83,-2.79,3.12
11.180834770202637,-1.13,-0.99,-2.68,3.07
11.190850734710693,-1.07,-1.12,-2.54,2.97
11.201011896133423,-0.98,-1.23,-2.5,2.95
11.211910724639893,-0.86,-1.29,-2.55,2.98
11.221880912780762,-0.71,-1.34,-2.65,3.05
11.231449842453003,-0.57,-1.39,-2.77,3.15
11.25305986404419,-0.47,-1.37,-2.86,3.2
11.254683017730713,-0.42,-1.31,-2.92,3.22
11.260925769805908,-0.37,-1.22,-2.99,3.25
11.27498483657837,-0.28,-1.13,-3.14,3.34
11.280953884124756,-0.19,-1.05,-3.27,3.43
11.290825843811035,-0.15,-0.96,-3.2,3.34
11.300851821899414,-0.12,-0.77,-3.11,3.2
11.312083721160889,-0.02,-0.54,-3.03,3.07
11.32173776626587,0.1,-0.36,-2.98,3.0
11.331759929656982,0.26,-0.22,-2.79,2.81
11.356156826019287,0.37,-0.07,-2.56,2.58
11.35828185081482,0.46,0.09,-2.35,2.39
11.360734939575195,0.57,0.22,-2.11,2.19
11.375200748443604,0.63,0.36,-1.77,1.91
11.380953788757324,0.65,0.53,-1.37,1.6
11.390781879425049,0.76,0.64,-0.81,1.28
11.402019023895264,0.94,0.67,-0.21,1.17
11.41200304031372,1.11,0.74,0.4,1.39
11.421639919281006,1.19,0.87,1.07,1.82
11.431688785552979,1.21,0.96,1.75,2.33
11.456264019012451,1.17,1.09,2.22,2.73
11.458003044128418,1.16,1.15,2.54,3.01
11.460722923278809,1.36,1.23,2.84,3.38
11.475133895874023,1.45,1.44,2.99,3.62
11.48088788986206,1.48,1.73,3.12,3.86
11.490763902664185,1.5,1.93,3.17,4.0
11.500903844833374,1.43,2.01,3.2,4.04
11.511696815490723,1.35,2.09,3.36,4.18
11.52201795578003,1.29,2.04,3.71,4.42
11.53169584274292,1.17,1.69,4.33,4.79
11.55620002746582,1.03,1.11,5.09,5.31
11.55788803100586,0.78,0.55,5.63,5.71
11.560680866241455,0.46,0.24,5.98,6.0
11.574151039123535,0.31,0.05,6.06,6.06
11.58096694946289,0.39,-0.28,5.75,5.77
11.590919971466064,0.57,-0.61,5.09,5.15
11.600806713104248,0.68,-0.79,4.04,4.17
11.611652851104736,0.75,-0.81,2.77,2.98
11.621904850006104,0.92,-0.86,1.64,2.06
11.631431818008423,1.04,-1.22,0.67,1.73
11.654650926589966,1.11,-1.7,-0.23,2.04
11.656282901763916,1.19,-2.04,-0.98,2.55
11.660669803619385,1.32,-2.09,-1.59,2.93
11.675366878509521,1.47,-1.93,-2.13,3.22
11.680994033813477,1.57,-1.71,-2.5,3.41
11.690927982330322,1.62,-1.53,-2.68,3.48
11.700952053070068,1.63,-1.43,-2.74,3.49
11.711941719055176,1.61,-1.38,-2.8,3.51
11.721823930740356,1.56,-1.4,-2.86,3.54
11.731700897216797,1.44,-1.45,-2.93,3.57
11.756128787994385,1.25,-1.5,-3.12,3.68
11.757720947265625,1.03,-1.52,-3.3,3.77
11.760573863983154,0.83,-1.56,-3.44,3.86
11.776099920272827,0.6,-1.6,-3.61,3.99
11.78096890449524,0.46,-1.53,-3.6,3.93
11.790905952453613,0.3,-1.45,-3.72,4.0
11.800918817520142,0.06,-1.41,-3.89,4.13
11.81174898147583,-0.08,-1.33,-3.9,4.12
11.821565866470337,-0.24,-1.27,-3.98,4.18
11.831711769104004,-0.44,-1.13,-4.0,4.17
11.854928970336914,-0.68,-0.97,-4.05,4.21
11.85658073425293,-0.93,-0.85,-4.17,4.35
11.860525846481323,-1.09,-0.75,-4.24,4.44
11.875749826431274,-1.19,-0.61,-4.19,4.39
11.881041049957275,-1.18,-0.43,-4.0,4.19
11.891008853912354,-1.02,-0.27,-3.52,3.67
11.900950908660889,-0.8,-0.13,-2.84,2.95
11.91178584098816,-0.48,-0.05,-2.03,2.08
11.921883821487427,-0.15,0.04,-1.03,1.04
11.931534767150879,0.11,0.22,0.36,0.43
11.956207752227783,0.3,0.51,1.55,1.65
11.957813739776611,0.41,0.69,2.51,2.63
11.960458755493164,0.47,0.69,3.28,3.38
11.975618839263916,0.47,0.64,3.82,3.9
11.981075763702393,0.43,0.65,4.15,4.22
11.990916728973389,0.39,0.69,4.31,4.38
12.000856876373291,0.33,0.69,4.44,4.5
12.011838912963867,0.27,0.72,4.37,4.43
12.020388841629028,0.24,0.8,4.03,4.11
12.030731916427612,0.19,0.94,3.46,3.59
12.05120587348938,0.13,1.22,2.79,3.04
12.052722930908203,0.11,1.48,2.34,2.77
12.059423923492432,0.05,1.58,2.12,2.64
12.06978988647461,0.01,1.52,2.19,2.66
12.079730033874512,-0.07,1.32,2.5,2.82
12.089645862579346,-0.14,1.03,3.04,3.21
12.099737882614136,-0.16,0.66,3.68,3.74
12.110651969909668,-0.16,0.22,4.23,4.23
12.1211998462677,-0.22,-0.28,4.62,4.63
12.130674839019775,-0.4,-0.74,4.82,4.89
12.153495788574219,-0.78,-0.97,4.78,4.93
12.155470848083496,-1.2,-0.97,4.39,4.65
12.159255981445312,-1.49,-1.01,3.64,4.06
12.175403833389282,-1.65,-1.23,2.74,3.42
12.179697036743164,-1.79,-1.47,1.99,3.05
12.19064474105835,-2.03,-1.6,1.21,2.85
12.200422763824463,-2.14,-1.6,0.42,2.7
12.210104942321777,-2.1,-1.52,-0.21,2.6
12.22056770324707,-2.1,-1.39,-0.63,2.59
12.230270862579346,-2.16,-1.26,-1.01,2.69
12.249600887298584,-2.23,-1.19,-1.38,2.87
12.251240730285645,-2.21,-1.2,-1.69,3.02
12.25975489616394,-2.13,-1.28,-2.02,3.2
12.269903898239136,-1.95,-1.39,-2.39,3.38
12.27994680404663,-1.71,-1.46,-2.7,3.51
12.289580821990967,-1.56,-1.47,-2.97,3.66
12.300035953521729,-1.47,-1.52,-3.19,3.82
12.309603929519653,-1.36,-1.64,-3.35,3.97
12.321609020233154,-1.25,-1.68,-3.5,4.07
12.330190896987915,-1.11,-1.63,-3.66,4.15
12.350606918334961,-1.07,-1.54,-3.8,4.23
12.352121829986572,-1.03,-1.36,-3.84,4.2
12.35954475402832,-0.97,-1.2,-3.87,4.16
12.369768857955933,-0.9,-1.07,-3.85,4.09
12.379775047302246,-0.88,-0.89,-3.78,3.98
12.389774799346924,-0.87,-0.68,-3.63,3.79
12.399715900421143,-0.83,-0.42,-3.23,3.36
12.410398960113525,-0.89,-0.21,-2.94,3.07
12.420310020446777,-0.84,-0.01,-2.72,2.84
12.430545806884766,-0.7,0.2,-2.51,2.61
12.45235300064087,-0.55,0.4,-2.31,2.4
12.453797817230225,-0.43,0.52,-2.05,2.15
12.459517002105713,-0.27,0.61,-1.81,1.92
12.469769954681396,-0.19,0.73,-1.57,1.74
12.479749917984009,-0.12,0.9,-1.26,1.55
12.489717960357666,-0.08,1.11,-0.92,1.44
12.499654769897461,-0.03,1.32,-0.56,1.43
12.510678768157959,0.05,1.49,-0.25,1.51
12.520209789276123,0.11,1.64,0.05,1.64
12.530516862869263,0.23,1.79,0.35,1.83
12.550331830978394,0.34,1.93,0.65,2.06
12.551829814910889,0.4,1.99,0.99,2.25
12.559461832046509,0.43,1.96,1.37,2.42
12.570035934448242,0.44,1.93,1.78,2.66
12.579800844192505,0.37,1.84,2.22,2.9
12.589820861816406,0.3,1.7,2.59,3.11
12.59969687461853,0.27,1.55,2.91,3.3
12.610708713531494,0.3,1.46,3.14,3.47
12.620765924453735,0.35,1.37,3.26,3.55
12.630354881286621,0.42,1.31,3.3,3.57
12.651373863220215,0.47,1.34,3.25,3.54
12.65313982963562,0.45,1.51,3.14,3.51
12.66332483291626,0.46,1.62,3.09,3.51
12.6736478805542,0.56,1.35,3.23,3.54
12.68353796005249,0.63,0.76,3.43,3.56
12.69352102279663,0.63,0.14,3.72,3.77
12.70445990562439,0.61,-0.41,3.95,4.01
12.714180946350098,0.55,-0.87,4.06,4.18
12.724423885345459,0.47,-1.1,4.03,4.2
12.754097938537598,0.45,-1.15,3.73,3.92
12.755407810211182,0.47,-1.18,3.1,3.35
12.756825923919678,0.42,-1.37,2.28,2.69
12.777421951293945,0.37,-1.66,1.49,2.26
12.77893590927124,0.3,-1.87,0.7,2.01
12.791643857955933,0.25,-1.9,-0.06,1.91
12.793274879455566,0.19,-1.82,-0.7,1.95
12.807529926300049,0.11,-1.69,-1.22,2.08
12.813831806182861,0.06,-1.63,-1.55,2.25
12.825281858444214,0.02,-1.6,-1.73,2.35
12.851202964782715,-0.02,-1.57,-1.84,2.41
12.852871894836426,-0.07,-1.54,-1.89,2.43
12.85401201248169,-0.13,-1.48,-1.96,2.45
12.863261699676514,-0.19,-1.42,-1.99,2.45
12.874537944793701,-0.24,-1.38,-2.02,2.45
12.883594036102295,-0.29,-1.32,-2.15,2.53
12.893362998962402,-0.3,-1.29,-2.33,2.68
12.903512001037598,-0.29,-1.24,-2.28,2.61
12.914176940917969,-0.42,-1.16,-2.53,2.81
12.924257755279541,-0.47,-1.1,-2.71,2.96
12.954608917236328,-0.5,-1.03,-2.72,2.95
12.955909729003906,-0.61,-0.92,-2.86,3.06
12.957279920578003,-0.73,-0.76,-2.92,3.1
12.977009773254395,-0.83,-0.61,-3.01,3.18
12.97849178314209,-0.93,-0.53,-3.11,3.28
12.991816997528076,-0.88,-0.41,-3.13,3.27
12.993387699127197,-0.78,-0.3,-3.25,3.35
13.007561922073364,-0.66,-0.2,-3.14,3.21
13.013609886169434,-0.56,-0.02,-2.91,2.96
13.025580883026123,-0.5,0.15,-2.75,2.79
13.053390979766846,-0.4,0.32,-2.6,2.64
13.055010795593262,-0.31,0.47,-2.4,2.46
13.056030750274658,-0.23,0.58,-2.16,2.24
13.063031911849976,-0.16,0.7,-1.9,2.03
13.073221921920776,-0.1,0.85,-1.66,1.86
13.083635807037354,-0.09,1.06,-1.46,1.8
13.09359073638916,-0.22,1.31,-1.17,1.77
13.103618860244751,-0.38,1.54,-0.87,1.8
13.11369800567627,-0.47,1.66,-0.53,1.8
13.123573780059814,-0.43,1.66,-0.1,1.71
13.15169095993042,-0.39,1.65,0.44,1.75
13.15314769744873,-0.31,1.67,0.97,1.95
13.15458083152771,-0.17,1.6,1.5,2.19
13.163489818572998,-0.05,1.43,2.02,2.47
13.175446033477783,0.0,1.25,2.53,2.82
13.18341875076294,0.0,1.04,2.97,3.14
13.193455696105957,-0.08,0.91,3.32,3.44
13.203625917434692,-0.23,1.05,3.61,3.76
13.213778972625732,-0.37,1.29,3.85,4.07
13.224764823913574,-0.53,1.45,4.01,4.29
13.2531578540802,-0.73,1.67,4.11,4.49
13.254479885101318,-0.81,1.82,4.27,4.71
13.255903720855713,-0.84,1.53,4.66,4.97
13.263185024261475,-0.87,0.9,5.22,5.36
13.273424863815308,-0.8,0.3,5.65,5.71
13.283661842346191,-0.57,-0.22,5.88,5.91
13.2936429977417,-0.32,-0.63,5.74,5.78
13.303503036499023,-0.29,-0.76,5.28,5.34
13.314385890960693,-0.33,-0.78,4.49,4.56
13.324491024017334,-0.29,-0.82,3.39,3.49
13.352818965911865,-0.22,-0.98,2.27,2.48
13.354170799255371,-0.2,-1.25,1.42,1.9
13.355579853057861,-0.39,-1.47,0.81,1.72
13.363276958465576,-0.69,-1.53,0.24,1.69
13.374894857406616,-0.93,-1.45,-0.24,1.73
13.383550882339478,-1.07,-1.25,-0.65,1.76
13.393517017364502,-1.14,-1.14,-0.96,1.87
13.403450965881348,-1.14,-1.19,-1.19,2.03
13.414132833480835,-1.1,-1.3,-1.37,2.18
13.424574851989746,-1.01,-1.37,-1.55,2.3
13.454438924789429,-0.91,-1.38,-1.75,2.4
13.455755710601807,-0.82,-1.43,-1.93,2.53
13.457165718078613,-0.75,-1.51,-2.14,2.72
13.477327823638916,-0.67,-1.6,-2.37,2.93
13.478868007659912,-0.58,-1.68,-2.66,3.19
13.492281913757324,-0.51,-1.71,-2.94,3.43
13.493847846984863,-0.47,-1.64,-3.19,3.61
13.508091926574707,-0.41,-1.54,-3.39,3.74
13.513799905776978,-0.39,-1.41,-3.57,3.85
13.525667905807495,-0.34,-1.24,-3.68,3.89
13.553370952606201,-0.29,-1.08,-3.72,3.88
13.555017948150635,-0.19,-1.01,-3.84,3.97
13.556123733520508,-0.15,-0.93,-3.94,4.05
13.563267707824707,-0.12,-0.79,-3.83,3.91
13.573387861251831,-0.08,-0.66,-3.7,3.75
13.583591938018799,-0.12,-0.52,-3.5,3.54
13.593740940093994,-0.18,-0.33,-3.16,3.18
13.603667736053467,-0.15,-0.12,-2.86,2.86
13.613955974578857,-0.07,0.0,-2.65,2.65
13.62427282333374,0.02,0.0,-2.44,2.44
13.654526710510254,0.11,0.04,-2.24,2.24
13.655842781066895,0.21,0.12,-2.08,2.09
13.656805038452148,0.3,0.27,-1.95,1.99
13.663548946380615,0.34,0.54,-1.69,1.8
13.673476696014404,0.33,0.86,-1.35,1.63
13.68367886543274,0.32,1.12,-1.04,1.56
13.693751811981201,0.29,1.32,-0.62,1.48
13.70359492301941,0.27,1.46,-0.24,1.5
13.713977813720703,0.26,1.57,0.23,1.6
13.723506927490234,0.3,1.66,0.75,1.84
13.750746726989746,0.33,1.67,1.42,2.21
13.752058982849121,0.3,1.6,2.07,2.63
13.753671884536743,0.23,1.47,2.69,3.07
13.763502836227417,0.17,1.36,3.16,3.44
13.773709774017334,0.24,1.41,3.36,3.65
13.783625841140747,0.39,1.48,3.44,3.76
13.793763875961304,0.55,1.47,3.46,3.79
13.803651809692383,0.65,1.59,3.36,3.77
13.814743041992188,0.73,1.7,3.27,3.75
13.824545860290527,0.8,1.46,3.32,3.71
13.855815887451172,0.79,0.93,3.57,3.77
13.857123851776123,0.69,0.31,4.07,4.13
13.858568906784058,0.54,-0.12,4.4,4.43
13.87771987915039,0.44,-0.43,4.57,4.61
13.87912392616272,0.44,-0.76,4.53,4.61
13.892630815505981,0.5,-1.09,4.2,4.36
13.894158840179443,0.56,-1.19,3.46,3.7
13.90851092338562,0.6,-1.08,2.46,2.75
13.91443395614624,0.66,-1.05,1.46,1.91
13.925006866455078,0.69,-1.25,0.69,1.58
13.95272183418274,0.73,-1.45,0.03,1.62
13.954346895217896,0.8,-1.5,-0.57,1.79
13.955457925796509,0.85,-1.37,-1.06,1.92
13.963308811187744,0.88,-1.12,-1.43,2.01
13.977606773376465,0.89,-0.98,-1.64,2.1
13.983710765838623,0.89,-1.03,-1.72,2.19
13.99358582496643,0.92,-1.13,-1.75,2.27
14.003541946411133,0.96,-1.13,-1.74,2.28
14.01486587524414,0.99,-1.1,-1.71,2.26
14.024570941925049,0.99,-1.12,-1.72,2.27
14.055645942687988,0.95,-1.15,-1.72,2.27
14.056692838668823,0.87,-1.15,-1.78,2.29
14.057631015777588,0.73,-1.13,-1.87,2.3
14.063736915588379,0.62,-1.04,-2.02,2.35
14.073771953582764,0.5,-0.97,-2.2,2.45
14.08381986618042,0.38,-0.93,-2.41,2.61
14.09376573562622,0.28,-0.89,-2.66,2.81
14.103624820709229,0.2,-0.85,-2.94,3.06
14.11461877822876,0.13,-0.76,-3.18,3.27
14.124389886856079,0.08,-0.65,-3.37,3.43
14.155689716339111,0.02,-0.53,-3.49,3.53
14.15702486038208,0.0,-0.4,-3.61,3.63
14.157927989959717,0.02,-0.27,-3.66,3.67
14.163647890090942,0.01,-0.14,-3.64,3.64
14.173719882965088,0.03,0.02,-3.57,3.57
14.183743953704834,0.04,0.18,-3.41,3.41
14.193782806396484,0.05,0.33,-3.22,3.23
14.203630924224854,0.07,0.46,-2.95,2.98
14.214759826660156,0.08,0.52,-2.58,2.63
14.224284887313843,0.07,0.6,-2.09,2.17
14.254811763763428,0.03,0.74,-1.53,1.69
14.25614595413208,-0.01,0.91,-0.93,1.3
14.257105827331543,-0.08,1.07,-0.3,1.11
14.263527870178223,-0.07,1.19,0.31,1.23
14.273565769195557,-0.05,1.34,0.98,1.66
14.28371000289917,-0.2,1.4,1.67,2.18
14.293750762939453,-0.39,1.33,2.18,2.58
14.30378770828247,-0.49,1.24,2.61,2.93
14.31396484375,-0.49,1.14,2.92,3.17
14.324627876281738,-0.39,1.03,3.08,3.27
14.352393865585327,-0.27,0.99,3.11,3.27
14.353603839874268,-0.21,1.08,2.98,3.17
14.35508680343628,-0.18,1.3,2.83,3.11
14.36372184753418,-0.29,1.6,2.82,3.25
14.373542785644531,-0.53,1.94,2.87,3.5
14.383794784545898,-0.8,2.15,3.03,3.8
14.393813848495483,-0.92,1.81,3.57,4.1
14.403713703155518,-1.01,1.26,4.45,4.73
14.413942813873291,-1.06,0.98,5.3,5.49
14.42451000213623,-0.89,0.62,5.81,5.91
14.450981855392456,-0.63,0.12,5.92,5.95
14.452384948730469,-0.54,-0.25,5.78,5.81
14.453824996948242,-0.63,-0.47,5.34,5.39
14.463515758514404,-0.72,-0.72,4.52,4.63
14.473811864852905,-0.78,-1.12,3.43,3.69
14.48370885848999,-0.93,-1.55,2.33,2.94
14.493851900100708,-1.14,-1.77,1.32,2.48
14.503665924072266,-1.32,-1.9,0.43,2.35
14.513844966888428,-1.46,-1.94,-0.29,2.44
14.52459192276001,-1.5,-1.9,-0.79,2.54
14.555372714996338,-1.43,-1.83,-0.98,2.52
14.556721925735474,-1.33,-1.76,-0.97,2.4
14.558050870895386,-1.25,-1.73,-0.95,2.33
14.56388783454895,-1.14,-1.76,-1.06,2.34
14.573434829711914,-0.99,-1.82,-1.33,2.46
14.583564758300781,-0.84,-1.78,-1.7,2.6
14.59366488456726,-0.7,-1.73,-2.18,2.86
14.603672981262207,-0.61,-1.74,-2.67,3.24
14.613996028900146,-0.58,-1.78,-3.21,3.71
14.624551773071289,-0.49,-1.81,-3.72,4.16
14.652278900146484,-0.4,-1.79,-4.24,4.61
14.653588771820068,-0.33,-1.7,-4.72,5.02
14.655016899108887,-0.25,-1.59,-5.1,5.34
14.66349482536316,-0.15,-1.43,-5.41,5.59
14.673499822616577,-0.09,-1.26,-5.57,5.71
14.683781862258911,-0.06,-1.07,-5.57,5.67
14.693830013275146,-0.08,-0.84,-5.44,5.5
14.703670978546143,-0.09,-0.57,-5.17,5.2
14.714684009552002,-0.03,-0.34,-4.84,4.85
14.724707841873169,0.06,-0.19,-4.42,4.42
14.754475831985474,0.17,-0.08,-3.88,3.88
14.75576400756836,0.33,0.07,-3.18,3.19
14.757186889648438,0.49,0.25,-2.26,2.32
14.763645887374878,0.61,0.35,-1.22,1.4
14.773783922195435,0.68,0.42,-0.16,0.81
14.783690929412842,0.63,0.53,0.47,0.94
14.793842792510986,0.58,0.68,1.14,1.44
14.803666830062866,0.59,0.91,1.66,1.98
14.81448483467102,0.54,1.14,1.96,2.33
14.824269771575928,0.5,1.28,2.2,2.59
14.853554725646973,0.51,1.37,2.38,2.79
14.854880809783936,0.57,1.37,2.52,2.92
14.856330871582031,0.63,1.32,2.55,2.93
14.863670825958252,0.75,1.31,2.55,2.96
14.876037836074829,0.81,1.33,2.59,3.02
14.883814811706543,0.85,1.36,2.61,3.06
14.89368486404419,0.85,1.41,2.64,3.11
14.903856754302979,0.84,1.51,2.65,3.16
14.914519786834717,0.84,1.67,2.53,3.14
14.92474889755249,0.9,1.85,2.4,3.16
14.955037832260132,0.98,2.07,2.36,3.28
14.95634388923645,1.05,2.2,2.4,3.42
14.95737886428833,1.31,1.9,2.65,3.51
14.96340799331665,1.55,1.14,3.27,3.79
14.97354793548584,1.53,0.41,3.96,4.26
14.98391580581665,1.43,0.08,4.67,4.88
14.993844985961914,1.35,-0.24,5.26,5.43
15.003695964813232,1.37,-0.8,5.69,5.9
15.014591932296753,1.51,-1.33,5.88,6.21
15.024369716644287,1.64,-1.57,5.5,5.95
15.054381847381592,1.75,-1.61,4.74,5.3
15.05571985244751,1.7,-1.77,3.66,4.4
15.057199954986572,1.63,-2.05,2.4,3.55
15.063337802886963,1.56,-2.16,1.13,2.89
15.076978921890259,1.36,-2.1,-0.11,2.5
15.083797931671143,1.16,-1.97,-1.18,2.57
15.093734741210938,1.0,-1.8,-2.03,2.89
15.103841781616211,0.89,-1.67,-2.68,3.28
15.113929748535156,0.75,-1.58,-3.11,3.56
15.124650955200195,0.62,-1.47,-3.47,3.81
15.152227878570557,0.51,-1.39,-3.73,4.01
15.153522968292236,0.36,-1.43,-3.83,4.1
15.155008792877197,0.22,-1.5,-3.92,4.2
15.163520812988281,0.07,-1.52,-4.03,4.3
15.173503875732422,-0.07,-1.51,-4.12,4.38
15.183886051177979,-0.19,-1.5,-4.17,4.43
15.193919897079468,-0.28,-1.47,-4.23,4.48
15.20361590385437,-0.31,-1.43,-4.24,4.48
15.214542865753174,-0.32,-1.37,-4.19,4.41
15.224210739135742,-0.35,-1.37,-4.22,4.45
15.256387710571289,-0.39,-1.4,-4.18,4.42
15.257682800292969,-0.41,-1.38,-4.15,4.39
15.258643865585327,-0.39,-1.35,-4.19,4.41
15.263467788696289,-0.36,-1.3,-4.21,4.42
15.273778915405273,-0.33,-1.25,-4.22,4.41
15.283895015716553,-0.29,-1.14,-4.17,4.33
15.293883800506592,-0.25,-0.93,-3.97,4.08
15.303807735443115,-0.18,-0.65,-3.63,3.69
15.314611911773682,-0.06,-0.35,-3.28,3.29
15.324712753295898,0.07,-0.1,-2.94,2.94
15.354267835617065,0.28,0.01,-2.58,2.59
15.35565996170044,0.51,0.11,-2.19,2.25
15.357087850570679,0.65,0.36,-1.65,1.8
15.363711833953857,0.64,0.71,-1.04,1.41
15.377372741699219,0.45,1.0,-0.25,1.12
15.383787870407104,0.23,1.19,0.71,1.4
15.393910884857178,0.15,1.25,1.53,1.98
15.403738975524902,0.09,1.22,2.36,2.65
15.413893699645996,0.07,1.26,3.24,3.47
15.424521923065186,-0.01,1.32,4.14,4.34
15.454661846160889,-0.15,1.31,4.91,5.08
15.455980777740479,-0.27,1.27,5.36,5.51
15.457060813903809,-0.36,1.31,5.53,5.69
15.463464736938477,-0.45,1.45,5.42,5.62
15.478026866912842,-0.58,1.57,5.22,5.48
15.483904838562012,-0.73,1.76,5.04,5.38
15.49388074874878,-0.83,1.9,5.05,5.45
15.503840923309326,-0.91,1.73,5.33,5.67
15.514219760894775,-1.07,1.31,5.7,5.94
15.52491283416748,-1.13,0.91,6.17,6.33
15.554803848266602,-1.01,0.55,6.56,6.66
15.556083917617798,-0.81,0.15,6.72,6.77
15.557538986206055,-0.69,-0.28,6.57,6.61
15.563493728637695,-0.63,-0.63,6.12,6.18
15.578202724456787,-0.62,-0.77,5.35,5.44
15.58382797241211,-0.63,-0.81,4.31,4.43
15.593961715698242,-0.65,-0.97,3.25,3.45
15.603857040405273,-0.72,-1.39,2.22,2.71
15.613931894302368,-0.86,-1.74,1.25,2.3
15.624956846237183,-0.99,-1.8,0.39,2.09
15.654283046722412,-1.1,-1.74,-0.42,2.1
15.655611038208008,-1.23,-1.66,-1.05,2.31
15.656981945037842,-1.32,-1.56,-1.49,2.52
15.663408756256104,-1.36,-1.5,-1.81,2.71
15.678161859512329,-1.35,-1.49,-2.05,2.87
15.683904886245728,-1.3,-1.55,-2.22,3.0
15.694247722625732,-1.24,-1.64,-2.36,3.12
15.703835010528564,-1.2,-1.71,-2.48,3.24
15.713767051696777,-1.14,-1.73,-2.6,3.32
15.724065780639648,-1.03,-1.72,-2.76,3.41
15.752893924713135,-0.93,-1.68,-2.98,3.54
15.75423002243042,-0.82,-1.66,-3.18,3.67
15.755614757537842,-0.72,-1.64,-3.33,3.78
15.763457775115967,-0.68,-1.64,-3.5,3.92
15.77413272857666,-0.65,-1.62,-3.64,4.03
15.783965826034546,-0.58,-1.57,-3.73,4.08
15.79393982887268,-0.51,-1.49,-3.77,4.08
15.803878784179688,-0.44,-1.38,-3.74,4.01
15.814766883850098,-0.41,-1.22,-3.64,3.86
15.825132846832275,-0.37,-1.05,-3.52,3.69
15.853668928146362,-0.3,-0.87,-3.34,3.46
15.855072021484375,-0.2,-0.62,-3.12,3.18
15.856476783752441,-0.12,-0.29,-2.9,2.91
15.86351990699768,0.01,-0.07,-2.64,2.64
15.874492883682251,0.19,0.07,-2.3,2.3
15.88404393196106,0.3,0.24,-1.91,1.94
15.894060850143433,0.33,0.49,-1.53,1.64
15.903926849365234,0.28,0.72,-1.14,1.37
15.91479778289795,0.23,0.81,-0.85,1.19
15.9253249168396,0.25,0.89,-0.71,1.16
15.954100847244263,0.36,1.07,-0.61,1.28
15.955453872680664,0.5,1.29,-0.5,1.47
15.956867933273315,0.65,1.47,-0.43,1.66
15.96371603012085,0.73,1.6,-0.26,1.77
15.974140882492065,0.76,1.71,0.14,1.87
15.983898878097534,0.75,1.77,0.61,2.01
15.993966817855835,0.7,1.78,1.02,2.16
16.00376796722412,0.65,1.73,1.51,2.38
16.01432991027832,0.62,1.68,2.03,2.7
16.020066738128662,0.59,1.72,2.39,3.0
16.031280040740967,0.64,1.8,2.62,3.24
16.05048370361328,0.73,1.84,2.76,3.39
16.05169677734375,0.81,1.95,2.85,3.54
16.05989384651184,0.87,2.18,2.88,3.71
16.069963932037354,0.92,2.26,3.06,3.91
16.08017873764038,0.91,1.86,3.44,4.01
16.090304851531982,0.92,1.11,3.94,4.19
16.10022497177124,1.01,0.41,4.41,4.54
16.11108088493347,1.06,-0.19,4.76,4.88
16.120868921279907,1.15,-0.73,4.84,5.02
16.13111400604248,1.25,-1.14,4.56,4.86
16.15140986442566,1.27,-1.35,3.89,4.3
16.152639865875244,1.2,-1.46,3.0,3.54
16.15981101989746,1.12,-1.77,2.17,3.01
16.169992923736572,0.97,-2.19,1.39,2.76
16.1802020072937,0.78,-2.32,0.59,2.51
16.190212726593018,0.71,-2.21,-0.17,2.32
16.200124740600586,0.75,-2.04,-0.85,2.33
16.21080493927002,0.81,-1.91,-1.47,2.54
16.22058391571045,0.82,-1.79,-1.89,2.72
16.231040000915527,0.73,-1.73,-2.16,2.86
16.253713846206665,0.6,-1.67,-2.42,3.0
16.254990816116333,0.53,-1.61,-2.67,3.16
16.259675979614258,0.51,-1.55,-2.9,3.32
16.270336866378784,0.51,-1.54,-3.03,3.43
16.28026580810547,0.49,-1.55,-3.08,3.48
16.29022979736328,0.42,-1.54,-3.11,3.49
16.300220012664795,0.32,-1.5,-3.12,3.47
16.310967922210693,0.22,-1.48,-3.19,3.52
16.32085084915161,0.14,-1.54,-3.24,3.59
16.330817699432373,0.0,-1.61,-3.21,3.59
16.35383701324463,-0.12,-1.6,-3.16,3.54
16.35511875152588,-0.29,-1.5,-3.15,3.5
16.359914779663086,-0.39,-1.4,-3.16,3.47
16.370361804962158,-0.46,-1.33,-3.19,3.48
16.380162715911865,-0.51,-1.25,-3.23,3.5
16.390163898468018,-0.57,-1.16,-3.22,3.46
16.40117383003235,-0.6,-1.05,-3.21,3.43
16.41144371032715,-0.56,-0.89,-3.17,3.33
16.420621871948242,-0.52,-0.7,-3.18,3.29
16.43089985847473,-0.45,-0.41,-3.09,3.14
16.451396942138672,-0.33,-0.13,-3.0,3.02
16.452624797821045,-0.25,0.1,-2.88,2.89
16.4599609375,-0.17,0.33,-2.72,2.74
16.47025203704834,0.01,0.6,-2.58,2.64
16.48020076751709,0.22,0.89,-2.29,2.46
16.490184783935547,0.3,1.17,-1.87,2.22
16.500220775604248,0.27,1.33,-1.3,1.87
16.51001286506653,0.15,1.43,-0.68,1.59
16.520156860351562,-0.02,1.64,-0.02,1.64
16.531368732452393,-0.06,1.88,0.68,2.0
16.55245590209961,0.09,1.89,1.5,2.41
16.55370283126831,0.3,1.75,2.39,2.97
16.55986189842224,0.38,1.65,3.14,3.56
16.570178985595703,0.34,1.64,3.72,4.07
16.580235958099365,0.26,1.76,4.04,4.41
16.590256929397583,0.2,1.93,4.16,4.59
16.600230932235718,0.09,2.11,4.09,4.6
16.610772848129272,-0.03,2.33,3.84,4.49
16.620797872543335,-0.12,2.49,3.71,4.46
16.63092279434204,-0.18,2.3,3.96,4.58
16.65309476852417,-0.22,1.69,4.57,4.87
16.65444803237915,-0.36,1.06,5.36,5.47
16.66105890274048,-0.49,0.61,6.01,6.06
16.671658039093018,-0.46,0.18,6.42,6.43
16.681572914123535,-0.38,-0.33,6.57,6.58
16.691507816314697,-0.43,-0.77,6.45,6.51
16.701525926589966,-0.67,-1.06,6.13,6.25
16.711991786956787,-0.96,-1.24,5.67,5.88
16.722023963928223,-1.18,-1.43,4.95,5.28
16.73229694366455,-1.33,-1.74,3.99,4.55
16.755355834960938,-1.38,-2.11,2.92,3.85
16.756701946258545,-1.42,-2.27,1.98,3.33
16.76126480102539,-1.43,-2.18,1.05,2.81
16.771525859832764,-1.44,-2.01,0.27,2.48
16.781545877456665,-1.5,-1.9,-0.41,2.45
16.7914879322052,-1.5,-1.91,-0.95,2.6
16.801554918289185,-1.45,-2.03,-1.41,2.86
16.81155776977539,-1.35,-2.17,-1.86,3.16
16.82195472717285,-1.23,-2.22,-2.35,3.45
16.832411766052246,-1.11,-2.2,-2.83,3.75
16.855854988098145,-1.01,-2.14,-3.26,4.02
16.857204914093018,-0.95,-2.09,-3.65,4.31
16.86135482788086,-0.89,-2.1,-4.04,4.63
16.871368885040283,-0.83,-2.14,-4.4,4.96
16.881313800811768,-0.73,-2.16,-4.69,5.21
16.891615867614746,-0.62,-2.15,-4.97,5.45
16.901477813720703,-0.52,-2.07,-5.24,5.65
16.91161298751831,-0.4,-1.92,-5.5,5.83
16.922231912612915,-0.28,-1.73,-5.67,5.93
16.93212604522705,-0.15,-1.69,-5.77,6.01
16.954784870147705,-0.04,-1.71,-5.81,6.05
16.956135749816895,0.03,-1.6,-5.76,5.97
16.961215019226074,0.08,-1.42,-5.55,5.72
16.971240997314453,0.1,-1.17,-5.36,5.48
16.981506824493408,0.14,-0.9,-5.09,5.17
16.991806030273438,0.23,-0.8,-4.78,4.85
17.001500844955444,0.35,-0.71,-4.41,4.48
17.01221799850464,0.59,-0.56,-3.81,3.89
17.021780967712402,0.92,-0.4,-3.26,3.41
17.0325288772583,1.18,-0.22,-2.6,2.86
17.055675983428955,1.35,0.03,-1.84,2.28
17.05704092979431,1.52,0.3,-1.19,1.95
17.06106472015381,1.71,0.46,-0.5,1.84
17.071435928344727,1.92,0.59,0.04,2.0
17.08146381378174,2.09,0.78,0.6,2.31
17.091553926467896,2.18,0.99,1.34,2.74
17.101577758789062,2.25,1.33,1.97,3.27
17.11160182952881,2.36,1.76,2.49,3.85
17.12144899368286,2.52,2.03,3.0,4.41
17.132551908493042,2.57,2.06,3.47,4.78
17.154911994934082,2.43,1.98,3.9,5.0
17.156263828277588,2.28,1.85,4.4,5.28
17.161293029785156,2.1,1.78,4.77,5.5
17.17170286178589,1.88,1.74,4.86,5.49
17.18166494369507,1.66,1.71,4.76,5.32
17.19158697128296,1.46,1.74,4.55,5.08
17.201578855514526,1.23,1.88,4.26,4.81
17.21161699295044,1.24,1.9,4.32,4.87
17.222291946411133,1.34,1.7,4.66,5.13
17.232337951660156,1.42,1.28,5.06,5.4
17.255900859832764,1.64,0.69,5.7,5.97
17.257283926010132,1.88,0.21,6.27,6.54
17.261361837387085,1.93,-0.12,6.47,6.75
17.271421909332275,1.8,-0.41,6.18,6.44
17.281633853912354,1.58,-0.7,5.41,5.67
17.29177188873291,1.34,-1.01,4.48,4.78
17.301662921905518,1.05,-1.32,3.48,3.86
17.31246280670166,0.84,-1.62,2.34,2.96
17.321975708007812,0.79,-1.85,1.14,2.31
17.332475900650024,0.8,-1.98,0.03,2.13
17.35505986213684,0.86,-2.06,-0.96,2.42
17.35637903213501,0.89,-2.06,-1.76,2.85
17.361297845840454,0.88,-2.1,-2.34,3.26
17.371667861938477,0.85,-2.18,-2.76,3.61
17.381712913513184,0.77,-2.2,-3.12,3.89
17.391899824142456,0.63,-2.19,-3.44,4.12
17.40154504776001,0.42,-2.06,-3.69,4.24
17.41247582435608,0.22,-1.86,-3.94,4.36
17.422042846679688,0.01,-1.72,-4.17,4.51
17.43233871459961,-0.24,-1.63,-4.26,4.56
17.45527982711792,-0.5,-1.59,-4.36,4.66
17.45663595199585,-0.73,-1.57,-4.45,4.77
17.461195945739746,-0.84,-1.6,-4.54,4.88
17.47177290916443,-0.88,-1.69,-4.62,4.99
17.48159170150757,-0.96,-1.74,-4.79,5.18
17.49169683456421,-1.12,-1.69,-5.11,5.49
17.501627922058105,-1.33,-1.65,-5.31,5.71
17.512335777282715,-1.53,-1.66,-5.43,5.88
17.52232074737549,-1.78,-1.65,-5.54,6.04
17.532635927200317,-2.04,-1.5,-5.44,6.0
17.558066844940186,-2.22,-1.19,-5.15,5.73
17.559379816055298,-2.28,-0.82,-4.82,5.39
17.56106686592102,-2.28,-0.52,-4.34,4.92
17.571374893188477,-2.21,-0.29,-3.77,4.37
17.581711769104004,-2.05,-0.08,-3.21,3.8
17.591652870178223,-1.86,0.18,-2.63,3.22
17.601651906967163,-1.69,0.48,-1.96,2.63
17.61239790916443,-1.54,0.84,-1.29,2.17
17.62213683128357,-1.53,1.25,-0.56,2.05
17.632524013519287,-1.54,1.57,0.45,2.24
17.65623378753662,-1.51,1.65,1.61,2.75
17.657564878463745,-1.43,1.51,2.54,3.28
17.661165714263916,-1.22,1.22,3.48,3.88
17.671405792236328,-0.99,1.07,4.39,4.62
17.68166184425354,-0.83,1.1,5.25,5.42
17.691647052764893,-0.65,1.15,5.85,5.99
17.701725959777832,-0.44,1.11,6.24,6.35
17.711561918258667,-0.15,0.98,6.43,6.5
17.72222089767456,0.19,0.92,6.41,6.47
17.732489824295044,0.52,1.08,6.12,6.23
17.75679087638855,0.76,1.38,5.69,5.9
17.758222818374634,0.9,1.69,5.29,5.62
17.761262893676758,0.92,1.8,5.17,5.55
17.771456718444824,0.81,1.65,5.3,5.6
17.781386852264404,0.69,1.29,5.64,5.82
17.79167604446411,0.63,0.83,6.03,6.11
17.801692962646484,0.66,0.33,6.38,6.42
17.81247901916504,0.72,0.02,6.57,6.6
17.82208490371704,0.83,-0.16,6.58,6.63
17.832561016082764,0.84,-0.29,6.23,6.29
17.85643982887268,0.73,-0.42,5.53,5.59
17.857802867889404,0.54,-0.61,4.6,4.67
17.861196994781494,0.31,-0.94,3.52,3.65
17.871623992919922,0.08,-1.27,2.41,2.72
17.881667852401733,-0.22,-1.48,1.44,2.07
17.891700744628906,-0.48,-1.63,0.67,1.82
17.901671886444092,-0.69,-1.71,-0.16,1.85
17.911597728729248,-0.89,-1.67,-0.82,2.06
17.922354698181152,-1.04,-1.64,-1.27,2.32
17.932342052459717,-1.12,-1.63,-1.63,2.56
17.955631732940674,-1.22,-1.55,-1.93,2.75
17.956978797912598,-1.27,-1.49,-2.11,2.87
17.961350917816162,-1.31,-1.41,-2.41,3.08
17.971542835235596,-1.36,-1.35,-2.69,3.3
17.981709957122803,-1.27,-1.34,-2.94,3.47
17.991775035858154,-1.11,-1.4,-3.19,3.65
18.001873016357422,-0.86,-1.52,-3.54,3.94
18.01240873336792,-0.58,-1.63,-3.98,4.33
18.0224289894104,-0.37,-1.66,-4.32,4.64
18.03246283531189,-0.23,-1.63,-4.53,4.81
18.05596089363098,-0.17,-1.67,-4.66,4.95
18.057304859161377,-0.11,-1.73,-4.74,5.04
18.061442852020264,-0.04,-1.8,-4.79,5.11
18.071541786193848,0.01,-1.88,-4.72,5.08
18.081689834594727,0.04,-1.84,-4.68,5.02
18.091876983642578,0.03,-1.69,-4.59,4.89
18.101964950561523,-0.02,-1.46,-4.3,4.54
18.111496925354004,-0.02,-1.2,-3.98,4.15
18.122379779815674,-0.01,-0.94,-3.77,3.88
18.132709980010986,0.05,-0.67,-3.49,3.55
18.156514883041382,0.12,-0.45,-3.14,3.17
18.15785503387451,0.15,-0.26,-2.73,2.74
18.161455869674683,0.16,-0.08,-2.29,2.29
18.171627044677734,0.15,0.05,-1.92,1.92
18.181702852249146,0.2,0.16,-1.54,1.56
18.191679000854492,0.26,0.31,-1.18,1.24
18.201955795288086,0.32,0.54,-0.84,1.04
18.21249485015869,0.4,0.77,-0.56,1.03
18.221914768218994,0.51,0.96,-0.35,1.14
18.232609748840332,0.58,1.1,-0.01,1.24
18.254858016967773,0.57,1.19,0.46,1.39
18.25622797012329,0.59,1.23,0.93,1.65
18.26145076751709,0.57,1.26,1.53,2.06
18.2718768119812,0.62,1.2,2.07,2.47
18.281728744506836,0.68,1.07,2.65,2.93
18.291664838790894,0.67,0.96,3.16,3.36
18.301910877227783,0.63,0.86,3.57,3.72
18.311633825302124,0.63,0.81,3.7,3.83
18.322371006011963,0.75,0.93,3.63,3.82
18.332327842712402,0.94,1.07,3.48,3.76
18.354795932769775,1.06,1.01,3.47,3.76
18.355963706970215,1.11,0.53,3.78,3.97
18.361427783966064,1.08,-0.14,4.26,4.39
18.371389865875244,1.1,-0.65,4.67,4.84
18.38167691230774,1.15,-0.98,5.14,5.35
18.391803741455078,1.08,-1.12,5.52,5.73
18.402002811431885,0.86,-1.01,5.55,5.7
18.412296772003174,0.75,-0.79,5.06,5.17
18.42231583595276,0.71,-0.81,4.13,4.26
18.432334899902344,0.8,-1.13,2.94,3.24
18.455055713653564,0.97,-1.45,1.78,2.49
18.456387042999268,1.06,-1.52,0.8,2.01
18.461472988128662,1.08,-1.36,-0.05,1.73
18.471542835235596,1.09,-1.21,-0.72,1.78
18.481632709503174,1.09,-1.3,-1.38,2.18
18.49175190925598,1.02,-1.38,-1.99,2.62
18.501949787139893,0.94,-1.34,-2.36,2.87
18.511826992034912,0.86,-1.24,-2.59,2.99
18.522620916366577,0.76,-1.12,-2.91,3.2
18.532487869262695,0.72,-0.93,-3.01,3.23
18.55779504776001,0.82,-0.89,-3.09,3.31
18.559168815612793,0.92,-1.05,-3.01,3.31
18.561285972595215,0.67,-1.26,-2.88,3.21
18.5715389251709,0.19,-1.42,-2.98,3.3
18.581723928451538,-0.12,-1.48,-2.87,3.23
18.59181499481201,-0.39,-1.45,-3.05,3.39
18.60172700881958,-0.61,-1.4,-3.32,3.65
18.61183190345764,-0.72,-1.27,-3.48,3.77
18.621710777282715,-0.72,-1.13,-3.67,3.9
18.63263177871704,-0.62,-1.06,-3.94,4.12
18.653653860092163,-0.48,-1.13,-4.2,4.37
18.654996871948242,-0.32,-1.21,-4.5,4.67
18.661462783813477,-0.28,-1.25,-4.66,4.83
18.671504974365234,-0.45,-1.2,-4.65,4.82
18.681713819503784,-0.67,-1.0,-4.49,4.64
18.691776752471924,-0.83,-0.67,-4.24,4.37
18.701988697052002,-0.87,-0.25,-4.0,4.1
18.711763858795166,-0.78,0.17,-3.91,3.99
18.72246789932251,-0.61,0.44,-3.8,3.87
18.732741832733154,-0.42,0.56,-3.61,3.67
18.75531578063965,-0.3,0.71,-3.31,3.39
18.75667691230774,-0.27,0.94,-2.82,2.98
18.761459827423096,-0.43,1.21,-2.28,2.61
18.771577835083008,-0.62,1.39,-1.77,2.33
18.781752824783325,-0.69,1.54,-1.04,1.98
18.791851043701172,-0.74,1.43,-0.44,1.66
18.801700830459595,-0.79,1.34,0.4,1.6
18.812697887420654,-0.87,1.46,1.16,2.05
18.822391986846924,-1.07,1.64,2.08,2.85
18.832571029663086,-1.21,1.65,2.92,3.56
18.85766077041626,-1.23,1.44,3.76,4.21
18.85901689529419,-1.16,1.29,4.51,4.83
18.861188888549805,-1.05,1.41,5.22,5.5
18.871827840805054,-0.97,1.6,5.83,6.12
18.881894826889038,-0.97,1.87,6.21,6.55
18.891801834106445,-1.1,2.17,6.47,6.91
18.901618003845215,-1.28,2.23,6.82,7.28
18.911723852157593,-1.4,1.82,7.25,7.6
18.92249870300293,-1.3,1.1,7.62,7.8
18.932573795318604,-0.98,0.48,7.85,7.92
18.954463005065918,-0.56,0.01,7.91,7.92
18.955679893493652,-0.29,-0.42,7.79,7.8
18.961380004882812,-0.29,-0.67,7.29,7.32
18.971940994262695,-0.43,-0.81,6.35,6.41
18.98188877105713,-0.58,-1.02,5.08,5.21
18.991883754730225,-0.66,-1.29,3.65,3.92
19.001601696014404,-0.79,-1.51,2.27,2.83
19.011714935302734,-0.87,-1.71,1.11,2.21
19.022614002227783,-0.94,-1.83,0.09,2.05
19.032519817352295,-0.99,-1.87,-0.77,2.25
19.054526805877686,-0.99,-1.95,-1.43,2.61
19.055803775787354,-1.0,-2.0,-2.04,3.02
19.061389923095703,-1.01,-2.0,-2.44,3.31
19.07181978225708,-1.0,-2.02,-2.73,3.54
19.081703901290894,-0.94,-2.02,-2.97,3.71
19.091907024383545,-0.82,-1.98,-3.13,3.79
19.101788997650146,-0.69,-1.92,-3.27,3.85
19.11250400543213,-0.58,-1.85,-3.45,3.95
19.122368812561035,-0.51,-1.82,-3.68,4.13
19.13265371322632,-0.45,-1.83,-3.89,4.32
19.157124996185303,-0.4,-1.82,-4.08,4.48
19.158419847488403,-0.35,-1.79,-4.28,4.65
19.16136884689331,-0.31,-1.76,-4.42,4.76
19.171658992767334,-0.24,-1.67,-4.48,4.78
19.181804895401,-0.16,-1.56,-4.52,4.78
19.19179677963257,-0.06,-1.42,-4.56,4.77
19.20180892944336,0.05,-1.24,-4.57,4.73
19.211684703826904,0.11,-1.0,-4.53,4.64
19.222630977630615,0.09,-0.73,-4.36,4.42
19.23258876800537,0.02,-0.42,-4.1,4.12
19.25533103942871,-0.07,-0.11,-3.88,3.88
19.256661891937256,-0.12,0.16,-3.62,3.62
19.261390924453735,-0.07,0.38,-3.27,3.29
19.27148199081421,0.04,0.53,-2.77,2.82
19.28171181678772,0.12,0.67,-2.17,2.27
19.2918438911438,0.2,0.81,-1.59,1.79
19.30165982246399,0.28,0.94,-1.09,1.46
19.312803745269775,0.39,1.1,-0.66,1.34
19.32245397567749,0.52,1.29,-0.18,1.4
19.332578897476196,0.65,1.4,0.19,1.55
19.356006860733032,0.71,1.44,0.58,1.7
19.357293844223022,0.75,1.44,0.96,1.88
19.36135196685791,0.73,1.43,1.39,2.12
19.371827840805054,0.7,1.39,1.79,2.37
19.381804943084717,0.78,1.3,2.17,2.64
19.391833782196045,0.87,1.14,2.52,2.89
19.401821851730347,0.88,1.01,2.83,3.13
19.412561893463135,0.8,0.89,3.19,3.4
19.422424793243408,0.67,0.76,3.45,3.59
19.43248176574707,0.59,0.65,3.61,3.71
19.456326007843018,0.51,0.77,3.56,3.67
19.45764398574829,0.45,1.13,3.31,3.52
19.461555004119873,0.39,1.35,2.95,3.26
19.47161293029785,0.39,0.9,2.87,3.03
19.48190402984619,0.56,-0.16,3.21,3.26
19.491832733154297,0.76,-1.02,3.67,3.88
19.501847743988037,0.81,-1.4,4.11,4.41
19.512654781341553,0.74,-1.55,4.52,4.83
19.52248787879944,0.57,-1.54,4.63,4.91
19.53287982940674,0.54,-1.44,4.4,4.66
19.555660724639893,0.53,-1.39,3.9,4.17
19.556967735290527,0.56,-1.39,3.08,3.42
19.561360836029053,0.7,-1.51,2.13,2.7
19.571669816970825,0.79,-1.52,1.18,2.08
19.581881046295166,0.83,-1.35,0.19,1.59
19.591944932937622,0.9,-1.23,-0.57,1.62
19.601786851882935,0.9,-1.2,-1.04,1.82
19.61287498474121,0.79,-1.22,-1.33,1.97
19.62247085571289,0.64,-1.25,-1.44,2.01
19.63264799118042,0.5,-1.2,-1.4,1.91
19.656181812286377,0.46,-1.12,-1.36,1.82
19.657527923583984,0.35,-1.02,-1.35,1.72
19.661324977874756,0.15,-0.81,-1.47,1.68
19.6719388961792,0.01,-0.69,-1.75,1.88
19.681972980499268,-0.1,-0.68,-2.08,2.19
19.691929817199707,-0.17,-0.76,-2.41,2.53
19.70179581642151,-0.3,-0.79,-2.72,2.84
19.71193289756775,-0.44,-0.69,-2.98,3.09
19.72276782989502,-0.53,-0.61,-3.19,3.29
19.73275589942932,-0.6,-0.65,-3.32,3.43
19.75466299057007,-0.69,-0.66,-3.44,3.57
19.756003856658936,-0.79,-0.55,-3.65,3.77
19.761428833007812,-0.87,-0.4,-3.83,3.94
19.771920919418335,-0.94,-0.26,-3.99,4.1
19.781859874725342,-0.98,-0.17,-4.13,4.24
19.791858911514282,-0.99,-0.06,-4.27,4.38
19.80208396911621,-0.96,0.04,-4.41,4.51
19.813694953918457,-0.86,0.11,-4.47,4.55
19.82224178314209,-0.71,0.14,-4.5,4.55
19.832464933395386,-0.56,0.18,-4.5,4.53
19.856209754943848,-0.43,0.24,-4.37,4.39
19.857568740844727,-0.36,0.34,-4.11,4.13
19.86158585548401,-0.28,0.49,-3.78,3.82
19.87193202972412,-0.24,0.64,-3.4,3.46
19.88172674179077,-0.21,0.8,-2.92,3.03
19.891732931137085,-0.2,0.93,-2.39,2.57
19.901564836502075,-0.21,1.06,-1.74,2.04
19.912664890289307,-0.15,1.2,-0.93,1.52
19.92239284515381,-0.07,1.23,0.11,1.23
19.932273864746094,-0.06,1.09,1.28,1.68
19.956686973571777,-0.05,0.9,2.49,2.64
19.958003044128418,-0.02,0.74,3.59,3.66
19.96144986152649,0.02,0.65,4.46,4.5
19.971840858459473,0.03,0.64,5.12,5.15
19.981624841690063,0.06,0.73,5.58,5.62
19.99179172515869,0.05,0.97,5.77,5.85
20.001734733581543,-0.06,1.22,5.82,5.94
20.01317071914673,-0.34,1.5,5.82,6.01
20.02104377746582,-0.63,1.75,5.9,6.18
20.031507968902588,-0.85,1.72,6.14,6.43
20.050869941711426,-0.96,1.14,6.59,6.75
20.052074909210205,-0.94,0.28,7.0,7.06
20.06015396118164,-0.84,-0.4,7.18,7.24
20.070518016815186,-0.66,-0.69,6.93,6.99
20.080338954925537,-0.48,-0.67,6.35,6.4
20.09078884124756,-0.45,-0.59,5.54,5.58
20.10038685798645,-0.56,-0.79,4.77,4.86
20.111560821533203,-0.74,-1.18,3.94,4.17
20.121068954467773,-0.92,-1.53,3.08,3.56
20.13112497329712,-1.04,-1.7,2.26,3.01
20.151315927505493,-1.16,-1.74,1.42,2.52
20.15252184867859,-1.24,-1.72,0.63,2.21
20.160221815109253,-1.26,-1.67,-0.18,2.09
20.17057704925537,-1.27,-1.67,-0.83,2.25
20.180502891540527,-1.22,-1.73,-1.37,2.52
20.19069790840149,-1.1,-1.82,-1.83,2.8
20.201333045959473,-0.93,-1.84,-2.22,3.02
20.211205005645752,-0.79,-1.78,-2.56,3.21
20.22133779525757,-0.69,-1.63,-2.92,3.41
20.23183298110962,-0.66,-1.46,-3.34,3.7
20.252014875411987,-0.62,-1.3,-3.75,4.01
20.253240823745728,-0.55,-1.27,-4.08,4.3
20.260265827178955,-0.49,-1.32,-4.4,4.61
20.2704439163208,-0.43,-1.36,-4.69,4.9
20.280570030212402,-0.39,-1.34,-4.98,5.17
20.290669918060303,-0.35,-1.28,-5.24,5.4
20.30133295059204,-0.31,-1.21,-5.38,5.52
20.311584949493408,-0.26,-1.12,-5.48,5.59
20.321341037750244,-0.22,-1.03,-5.57,5.66
20.331665992736816,-0.15,-0.93,-5.63,5.7
20.35082483291626,-0.05,-0.82,-5.57,5.63
20.35206174850464,0.08,-0.7,-5.46,5.5
20.360281944274902,0.16,-0.58,-5.37,5.4
20.37063193321228,0.24,-0.5,-5.2,5.22
20.380570888519287,0.43,-0.38,-4.9,4.93
20.390713930130005,0.74,-0.29,-4.49,4.55
20.400559902191162,1.03,-0.28,-3.88,4.02
20.410614013671875,1.19,-0.32,-2.99,3.23
20.421316862106323,1.17,-0.26,-2.34,2.62
20.43168592453003,1.22,-0.1,-2.07,2.4
20.451586723327637,1.35,-0.01,-1.72,2.18
20.452818870544434,1.45,0.02,-1.48,2.07
20.46038579940796,1.46,0.15,-1.33,1.98
20.470489978790283,1.35,0.3,-0.97,1.68
20.480824947357178,1.13,0.39,-0.31,1.23
20.490615844726562,0.97,0.45,0.5,1.18
20.50075888633728,0.83,0.51,1.16,1.51
20.51173496246338,0.78,0.55,1.6,1.86
20.521485805511475,0.87,0.54,2.0,2.24
20.53152894973755,0.96,0.55,2.41,2.65
20.551055908203125,0.98,0.64,3.01,3.22
20.552278995513916,1.09,0.88,3.95,4.19
20.560225009918213,1.26,1.33,5.0,5.32
20.57060480117798,1.44,1.86,6.22,6.64
20.580622911453247,1.73,1.95,7.84,8.26
20.59064769744873,1.96,1.48,9.6,9.9
20.60137701034546,2.1,0.67,11.04,11.25
20.611225843429565,1.99,-0.36,12.16,12.32
20.62105369567871,1.71,-1.4,12.85,13.03
20.631499767303467,1.44,-2.02,12.76,12.99
20.649982929229736,1.18,-2.2,11.9,12.15
20.651247024536133,0.97,-2.02,10.33,10.57
20.660399913787842,0.93,-1.73,8.16,8.39
20.67052173614502,0.94,-1.79,5.95,6.28
20.68065595626831,1.04,-2.1,3.78,4.44
20.690714836120605,1.17,-2.26,1.87,3.15
20.70064091682434,1.23,-2.2,0.2,2.52
20.710731983184814,1.28,-2.12,-1.17,2.73
20.721771717071533,1.37,-2.1,-2.29,3.39
20.731796741485596,1.42,-2.15,-2.96,3.92
20.754164695739746,1.3,-2.15,-3.45,4.26
20.755422830581665,1.1,-2.03,-3.84,4.48
20.760422706604004,0.84,-1.95,-4.3,4.79
20.770659923553467,0.63,-1.84,-4.66,5.04
20.780731916427612,0.5,-1.82,-4.9,5.25
20.79082679748535,0.39,-1.92,-5.06,5.42
20.800633907318115,0.3,-2.04,-5.19,5.58
20.81260871887207,0.21,-2.15,-5.31,5.73
20.82145881652832,0.13,-2.16,-5.45,5.86
20.83125400543213,0.08,-2.16,-5.54,5.94
20.85217785835266,-0.02,-2.13,-5.68,6.06
20.853408813476562,-0.1,-2.07,-5.87,6.22
20.860421895980835,-0.16,-2.01,-6.0,6.32
20.87037992477417,-0.21,-1.96,-6.09,6.4
20.88070583343506,-0.26,-1.94,-6.19,6.49
20.890824794769287,-0.31,-1.92,-6.27,6.56
20.900808811187744,-0.35,-1.87,-6.33,6.6
20.911542892456055,-0.38,-1.8,-6.33,6.59
20.92128086090088,-0.38,-1.69,-6.34,6.57
20.931790828704834,-0.39,-1.52,-6.28,6.47
20.954627990722656,-0.39,-1.38,-6.12,6.28
20.955925941467285,-0.35,-1.23,-5.89,6.02
20.96062684059143,-0.28,-1.11,-5.57,5.68
20.970696926116943,-0.18,-1.02,-5.2,5.3
20.980679035186768,0.0,-0.89,-4.67,4.75
20.990750789642334,0.28,-0.66,-3.95,4.01
21.000765800476074,0.54,-0.37,-2.97,3.04
21.01066493988037,0.69,-0.2,-1.26,1.45
21.020497798919678,0.57,-0.2,0.93,1.1
21.031935930252075,0.22,-0.3,2.33,2.35
21.05303382873535,-0.1,-0.03,3.69,3.69
21.054402828216553,-0.29,0.56,4.88,4.92
21.06108570098877,-0.25,0.99,6.02,6.1
21.07068395614624,0.04,1.13,7.06,7.14
21.080675840377808,0.37,1.09,7.92,8.0
21.090888023376465,0.53,1.13,8.53,8.62
21.100834846496582,0.49,1.44,8.82,8.95
21.110718727111816,0.29,1.88,8.94,9.14
21.1215877532959,0.01,2.18,9.08,9.33
21.131478786468506,-0.31,1.93,9.64,9.83
21.152490854263306,-0.61,1.36,10.14,10.24
21.15386199951172,-0.71,0.84,10.29,10.34
21.160907745361328,-0.65,0.27,10.2,10.22
21.170562744140625,-0.52,-0.1,9.63,9.64
21.180566787719727,-0.56,-0.24,8.77,8.79
21.190945863723755,-0.75,-0.31,7.57,7.61
21.20075488090515,-0.92,-0.49,6.25,6.33
21.211626052856445,-1.04,-0.82,4.87,5.04
21.22158670425415,-1.15,-1.23,3.42,3.81
21.231637001037598,-1.26,-1.63,1.98,2.85
21.253232955932617,-1.33,-1.99,0.72,2.49
21.25456690788269,-1.35,-2.33,-0.37,2.71
21.2607638835907,-1.36,-2.51,-1.32,3.14
21.270681858062744,-1.38,-2.57,-2.12,3.6
21.28082585334778,-1.37,-2.65,-2.67,4.0
21.290950775146484,-1.3,-2.73,-3.04,4.28
21.30159091949463,-1.22,-2.75,-3.37,4.51
21.311702728271484,-1.05,-2.71,-3.72,4.72
21.321510791778564,-0.87,-2.49,-4.13,4.9
21.331978797912598,-0.71,-2.32,-4.59,5.19
21.35605478286743,-0.49,-2.25,-5.05,5.55
21.357592821121216,-0.29,-2.24,-5.38,5.83
21.36062002182007,-0.09,-2.35,-5.65,6.11
21.370941877365112,0.08,-2.48,-5.92,6.41
21.380634784698486,0.14,-2.57,-6.14,6.65
21.390836715698242,0.17,-2.57,-6.31,6.81
21.40143394470215,0.17,-2.45,-6.44,6.89
21.41142702102661,0.17,-2.2,-6.38,6.75
21.42154288291931,0.1,-1.9,-6.14,6.42
21.431532859802246,0.05,-1.61,-5.82,6.03
21.455877780914307,0.03,-1.37,-5.46,5.62
21.457191944122314,0.03,-1.18,-5.03,5.16
21.46052598953247,0.03,-0.99,-4.61,4.71
21.470749855041504,0.0,-0.73,-4.26,4.32
21.48058271408081,0.03,-0.32,-3.87,3.88
21.490972995758057,0.21,0.12,-3.34,3.34
21.50081181526184,0.4,0.45,-2.46,2.53
21.511656761169434,0.52,0.46,-1.63,1.77
21.521320819854736,0.61,0.43,-0.82,1.1
21.53158187866211,0.67,0.54,-0.09,0.86
21.552121877670288,0.67,0.81,0.47,1.15
21.553400993347168,0.7,1.1,1.04,1.66
21.560422897338867,0.81,1.29,1.54,2.16
21.570827960968018,0.99,1.34,1.99,2.59
21.580766916275024,1.11,1.33,2.43,2.98
21.590850830078125,1.15,1.33,2.72,3.23
21.600854873657227,1.16,1.29,3.02,3.48
21.611843824386597,1.11,1.25,3.42,3.8
21.621352910995483,1.0,1.26,3.67,4.0
21.631772994995117,0.88,1.34,3.76,4.08
21.655348777770996,0.76,1.51,3.62,3.99
21.656689882278442,0.62,1.78,3.28,3.78
21.66054892539978,0.5,2.2,2.87,3.65
21.67083978652954,0.47,2.55,2.76,3.78
21.680792808532715,0.57,2.4,3.15,4.0
21.690955877304077,0.65,1.72,3.95,4.35
21.70079278945923,0.63,0.72,4.87,4.96
21.71165180206299,0.71,-0.03,5.75,5.79
21.721415042877197,0.77,-0.28,6.18,6.23
21.731777906417847,0.82,-0.45,6.0,6.07
21.75385284423828,0.81,-0.88,5.78,5.9
21.755185842514038,0.77,-1.27,5.42,5.61
21.76029682159424,0.77,-1.69,4.57,4.93
21.770981788635254,0.78,-2.08,3.42,4.07
21.780784845352173,0.84,-2.11,2.03,3.04
21.791144847869873,0.87,-1.85,0.62,2.13
21.80080270767212,0.86,-1.64,-0.43,1.9
21.811632871627808,0.79,-1.62,-1.1,2.11
21.82139778137207,0.65,-1.72,-1.69,2.49
21.83183789253235,0.53,-1.8,-2.1,2.81
21.855825901031494,0.37,-1.78,-2.5,3.09
21.8575758934021,0.18,-1.69,-2.9,3.36
21.86054801940918,0.04,-1.62,-3.24,3.62
21.87066388130188,-0.07,-1.63,-3.61,3.96
21.880891799926758,-0.15,-1.69,-3.97,4.31
21.890851974487305,-0.15,-1.72,-4.23,4.56
21.901533842086792,-0.17,-1.76,-4.44,4.77
21.91162395477295,-0.2,-1.92,-4.61,4.99
21.92163372039795,-0.23,-2.03,-4.73,5.15
21.931764841079712,-0.28,-1.99,-4.89,5.28
21.954505920410156,-0.33,-1.92,-5.03,5.39
21.955763816833496,-0.37,-1.87,-5.2,5.53
21.96075677871704,-0.42,-1.82,-5.35,5.66
21.970764875411987,-0.47,-1.77,-5.48,5.77
21.980921745300293,-0.48,-1.72,-5.6,5.87
21.990942001342773,-0.51,-1.71,-5.7,5.97
22.000804901123047,-0.56,-1.68,-5.73,5.99
22.01193904876709,-0.53,-1.62,-5.77,6.01
22.021344900131226,-0.45,-1.6,-5.78,6.01
22.031831741333008,-0.34,-1.48,-5.62,5.82
22.055743932724,-0.23,-1.18,-5.35,5.48
22.057153701782227,-0.11,-0.79,-5.04,5.1
22.060706853866577,-0.03,-0.38,-4.81,4.82
22.070487022399902,0.06,0.09,-4.48,4.48
22.081225872039795,0.26,0.52,-3.89,3.93
22.090820789337158,0.61,0.84,-3.23,3.39
22.100908756256104,1.37,0.7,-1.73,2.31
22.111881732940674,0.91,0.59,0.27,1.11
22.121543884277344,0.28,0.7,1.53,1.7
22.131929874420166,-0.3,1.29,2.84,3.13
22.153204917907715,-0.98,1.77,4.54,4.97
22.154541969299316,-1.14,1.88,5.68,6.09
22.160700798034668,-0.83,1.72,6.78,7.04
22.17075204849243,-0.48,1.46,7.78,7.93
22.180892944335938,-0.14,1.17,8.54,8.62
22.19101095199585,0.07,1.01,9.0,9.05
22.200839042663574,0.15,1.05,9.16,9.22
22.21127986907959,0.2,1.2,9.28,9.35
22.221678733825684,0.13,1.31,9.58,9.67
22.23155403137207,-0.03,1.08,9.82,9.87
22.252706050872803,-0.1,0.48,9.97,9.98
22.254047870635986,-0.09,-0.38,10.3,10.3
22.261000871658325,0.0,-1.16,10.55,10.61
22.27100896835327,0.13,-1.59,10.43,10.55
22.281407833099365,0.24,-1.69,10.14,10.28
22.29109287261963,0.16,-1.67,9.29,9.44
22.3006010055542,0.02,-1.71,8.42,8.59
22.310751914978027,-0.41,-1.84,7.65,7.87
22.321552753448486,-0.89,-2.04,7.08,7.42
22.33204984664917,-1.3,-2.32,6.49,7.01
22.353299856185913,-1.46,-2.79,5.7,6.51
22.354620933532715,-1.52,-3.17,4.8,5.94
22.360554933547974,-1.56,-3.26,3.78,5.22
22.370697021484375,-1.64,-3.18,2.7,4.48
22.38073492050171,-1.73,-3.09,1.53,3.85
22.39125394821167,-1.64,-3.26,0.41,3.67
22.400893926620483,-1.56,-3.39,-0.75,3.8
22.411592960357666,-1.48,-3.39,-1.88,4.14
22.421706914901733,-1.34,-3.4,-2.87,4.64
22.43158984184265,-1.06,-3.44,-3.67,5.14
22.455173015594482,-0.79,-3.44,-4.69,5.86
22.456485748291016,-0.57,-3.42,-5.8,6.75
22.460515022277832,-0.39,-3.35,-6.79,7.58
22.470757007598877,-0.28,-3.27,-7.44,8.13
22.480782985687256,-0.36,-3.33,-7.86,8.54
22.491246700286865,-0.42,-3.4,-8.08,8.77
22.50095272064209,-0.32,-3.39,-8.12,8.8
22.510814905166626,-0.17,-3.31,-8.12,8.77
22.521734714508057,-0.06,-3.17,-8.16,8.75
22.531869888305664,0.01,-2.99,-8.25,8.77
22.555551052093506,0.09,-2.75,-8.25,8.69
22.556864738464355,0.17,-2.52,-8.14,8.52
22.560333728790283,0.3,-2.35,-7.96,8.3
22.570695877075195,0.37,-2.12,-7.77,8.06
22.580896854400635,0.41,-1.94,-7.63,7.88
22.591080904006958,0.44,-1.79,-7.47,7.69
22.60086989402771,0.41,-1.55,-7.09,7.26
22.611817836761475,0.27,-1.21,-6.41,6.52
22.62139892578125,-0.05,-0.77,-5.38,5.43
22.63183283805847,-0.42,-0.4,-4.25,4.28
22.65174102783203,-0.73,0.2,-3.74,3.81
22.65310788154602,2.34,1.71,-5.3,6.04
22.66056776046753,3.82,1.64,-2.45,4.82
22.670779705047607,1.32,0.94,0.8,1.8
22.680901050567627,1.18,1.39,1.19,2.17
22.690966844558716,0.53,1.89,1.45,2.44
22.700970888137817,-0.14,1.87,1.9,2.66
22.71091604232788,-0.29,1.38,2.49,2.86
22.721813917160034,-0.19,1.04,2.7,2.89
22.73185086250305,-0.08,1.04,2.73,2.92
22.75398874282837,0.04,1.12,2.78,2.99
22.75533676147461,0.21,1.03,2.75,2.94
22.76047682762146,0.34,0.68,2.85,2.94
22.770789861679077,0.39,0.49,3.05,3.11
22.78089475631714,0.45,0.74,3.25,3.36
22.79096269607544,0.48,1.13,3.53,3.73
22.80094575881958,0.54,1.17,4.18,4.37
22.811635971069336,0.53,0.72,5.19,5.26
22.821517944335938,0.48,0.13,6.3,6.31
22.831867933273315,0.26,-0.38,7.21,7.22
22.855865001678467,-0.02,-0.83,7.97,8.01
22.85720205307007,-0.19,-1.17,8.32,8.4
22.860451698303223,-0.32,-1.23,8.04,8.13
22.870874881744385,-0.35,-1.13,7.2,7.29
22.880822896957397,-0.25,-1.13,6.25,6.35
22.890967845916748,-0.17,-1.31,5.04,5.21
22.900922775268555,-0.08,-1.52,3.74,4.03
22.9117329120636,-0.02,-1.62,2.43,2.92
22.92171573638916,0.03,-1.57,1.13,1.93
22.931427001953125,0.07,-1.54,0.01,1.54
22.95571279525757,0.14,-1.5,-0.98,1.79
22.957124710083008,0.24,-1.6,-1.62,2.28
22.960457801818848,0.14,-1.71,-2.18,2.77
22.97102975845337,0.06,-1.65,-2.73,3.19
22.98095703125,0.04,-1.52,-2.99,3.35
22.990850925445557,0.01,-1.32,-3.23,3.48
23.00114870071411,-0.01,-1.15,-3.31,3.5
23.011789798736572,-0.02,-1.04,-3.27,3.43
23.02139687538147,-0.08,-0.98,-3.19,3.33
23.03159189224243,-0.11,-1.0,-3.07,3.23
23.053213834762573,-0.15,-1.06,-3.03,3.21
23.05454182624817,-0.21,-1.06,-3.06,3.24
23.0605309009552,-0.24,-1.01,-3.09,3.25
23.070902824401855,-0.28,-0.9,-3.16,3.29
23.080928802490234,-0.34,-0.76,-3.29,3.39
23.090972900390625,-0.44,-0.62,-3.47,3.55
23.102153778076172,-0.51,-0.53,-3.62,3.69
23.11123275756836,-0.54,-0.49,-3.79,3.85
23.121739864349365,-0.52,-0.49,-3.88,3.94
23.131574869155884,-0.49,-0.46,-3.97,4.02
23.155412912368774,-0.47,-0.33,-4.06,4.1
23.15667200088501,-0.47,-0.17,-4.06,4.09
23.16066598892212,-0.45,-0.02,-3.99,4.01
23.17105984687805,-0.41,0.13,-3.86,3.88
23.181026935577393,-0.32,0.37,-3.61,3.64
23.19101572036743,-0.18,0.6,-3.3,3.35
23.20199680328369,-0.09,0.79,-2.96,3.06
23.211744785308838,-0.08,0.93,-2.44,2.61
23.221570014953613,-0.23,1.08,-1.86,2.16
23.231717824935913,-0.41,1.29,-1.24,1.83
23.25489091873169,-0.58,1.44,-0.62,1.67
23.25627088546753,-0.73,1.53,0.13,1.7
23.260661840438843,-0.71,1.51,0.88,1.88
23.27120089530945,-0.63,1.42,1.57,2.2
23.280969858169556,-0.55,1.33,2.34,2.74
23.291096925735474,-0.47,1.27,3.2,3.47
23.301016807556152,-0.41,1.13,4.0,4.17
23.311765909194946,-0.36,0.87,4.58,4.67
23.321868896484375,-0.3,0.77,4.96,5.02
23.331610918045044,-0.3,0.93,5.1,5.19
23.354887008666992,-0.08,1.03,5.21,5.31
23.356246948242188,0.15,1.26,4.84,5.0
23.36057996749878,-0.39,1.78,4.49,4.84
23.37096071243286,-0.34,1.86,4.48,4.86
23.381075859069824,-0.72,1.84,4.42,4.84
23.391143798828125,-0.94,1.64,4.56,4.93
23.40099287033081,-0.99,1.27,4.8,5.06
23.41176176071167,-0.88,0.68,4.94,5.06
23.421932697296143,-0.76,0.08,4.82,4.88
23.431707859039307,-0.66,-0.33,4.6,4.65
23.45504093170166,-0.7,-0.63,4.18,4.28
23.456340789794922,-0.82,-0.89,3.67,3.86
23.460723876953125,-0.99,-1.21,3.08,3.45
23.47156286239624,-1.12,-1.56,2.51,3.16
23.4811110496521,-1.27,-1.82,1.86,2.89
23.491110801696777,-1.42,-1.99,1.21,2.72
23.500995874404907,-1.56,-2.03,0.56,2.62
23.5118727684021,-1.67,-1.94,-0.06,2.56
23.521520853042603,-1.71,-1.83,-0.55,2.56
23.53180980682373,-1.7,-1.83,-0.93,2.66
23.552867889404297,-1.61,-1.93,-1.24,2.8
23.554189920425415,-1.41,-2.04,-1.53,2.91
23.5606427192688,-1.16,-2.06,-1.81,2.97
23.57142400741577,-0.94,-1.99,-2.09,3.03
23.58109998703003,-0.77,-1.9,-2.42,3.17
23.591087818145752,-0.62,-1.8,-2.73,3.32
23.601895809173584,-0.49,-1.71,-3.06,3.53
23.611865997314453,-0.38,-1.64,-3.41,3.8
23.621864795684814,-0.31,-1.61,-3.75,4.09
23.631968021392822,-0.28,-1.62,-3.99,4.31
23.65532088279724,-0.23,-1.57,-4.11,4.4
23.656633853912354,-0.22,-1.42,-4.19,4.42
23.660793781280518,-0.17,-1.21,-4.25,4.42
23.67085075378418,-0.04,-0.98,-4.29,4.4
23.680904865264893,0.06,-0.78,-4.2,4.27
23.690999031066895,0.07,-0.57,-4.03,4.07
23.701008796691895,-0.02,-0.4,-3.82,3.84
23.711963891983032,-0.16,-0.31,-3.52,3.53
23.721670866012573,-0.22,-0.18,-3.15,3.16
23.731555938720703,-0.15,0.0,-2.79,2.79
23.75377583503723,-0.05,0.24,-2.45,2.46
23.755146980285645,0.05,0.47,-2.02,2.07
23.760990858078003,0.13,0.6,-1.73,1.83
23.77157688140869,0.17,0.64,-1.48,1.62
23.781033992767334,0.15,0.73,-1.26,1.46
23.791090965270996,0.1,0.91,-1.08,1.41
23.801000833511353,0.05,1.13,-1.03,1.52
23.812158823013306,-0.06,1.39,-0.89,1.65
23.82183074951172,-0.11,1.65,-0.65,1.77
23.831851959228516,-0.03,1.86,-0.42,1.9
23.855852842330933,0.13,1.99,-0.29,2.01
23.857239723205566,0.33,2.01,-0.14,2.04
23.86089587211609,0.5,1.94,0.21,2.01
23.871798992156982,0.6,1.73,0.83,2.01
23.881074905395508,0.63,1.46,1.6,2.25
23.89118194580078,0.6,1.4,2.31,2.76
23.901051998138428,0.57,1.56,2.87,3.31
23.912263870239258,0.58,1.81,3.3,3.8
23.92174983024597,0.69,2.03,3.63,4.21
23.932013988494873,0.98,2.14,3.92,4.57
23.95373773574829,1.37,2.02,4.25,4.9
23.95509386062622,1.63,1.46,4.8,5.27
23.961002826690674,1.76,0.4,5.72,5.99
23.97194790840149,1.86,-0.53,6.74,7.01
23.981104850769043,1.93,-0.99,7.41,7.72
23.99101495742798,2.05,-1.3,7.44,7.82
24.000967025756836,2.1,-1.61,6.99,7.47
24.011291980743408,2.2,-1.84,6.44,7.04
24.020939826965332,2.24,-1.98,5.42,6.18
24.03182601928711,2.28,-2.21,4.15,5.22
24.05101490020752,2.34,-2.47,2.81,4.41
24.05254602432251,2.29,-2.66,1.56,3.84
24.06070899963379,2.23,-2.72,0.52,3.55
24.07200574874878,2.15,-2.69,-0.46,3.47
24.080963850021362,1.89,-2.6,-1.41,3.51
24.091073989868164,1.66,-2.54,-2.08,3.67
24.100911855697632,1.45,-2.46,-2.58,3.84
24.11199378967285,1.21,-2.35,-3.06,4.04
24.1217098236084,0.97,-2.17,-3.47,4.2
24.131722927093506,0.73,-1.97,-3.83,4.36
24.151787757873535,0.39,-1.86,-4.27,4.67
24.153013706207275,0.35,-2.07,-3.99,4.5
24.160642862319946,0.15,-2.05,-4.25,4.72
24.17180299758911,-0.02,-2.0,-4.48,4.9
24.181009769439697,-0.16,-1.97,-4.54,4.95
24.191043853759766,-0.31,-1.93,-4.58,4.97
24.200901985168457,-0.44,-1.93,-4.65,5.05
24.211861848831177,-0.6,-1.85,-4.8,5.17
24.221524715423584,-0.78,-1.67,-4.93,5.26
24.231756925582886,-0.96,-1.46,-5.01,5.3
24.252902030944824,-1.13,-1.29,-5.12,5.39
24.25429892539978,-1.3,-1.16,-5.14,5.42
24.26069688796997,-1.42,-1.09,-5.11,5.41
24.27159070968628,-1.5,-0.99,-4.97,5.28
24.280804872512817,-1.47,-0.86,-4.73,5.02
24.291074752807617,-1.36,-0.72,-4.45,4.7
24.3017418384552,-1.2,-0.53,-4.13,4.33
24.311845779418945,-1.06,-0.29,-3.84,3.99
24.321789741516113,-0.99,0.03,-3.63,3.76
24.332140922546387,-0.93,0.41,-3.25,3.4
24.352760791778564,-0.8,0.74,-2.63,2.84
24.35405969619751,-0.59,1.04,-1.83,2.18
24.360705852508545,-0.48,1.31,-0.96,1.69
24.371837854385376,-0.49,1.54,0.05,1.61
24.380971908569336,-0.61,1.78,1.12,2.18
24.391172885894775,-0.76,2.02,2.34,3.18
24.402041912078857,-0.91,2.2,3.77,4.45
24.411705017089844,-1.03,2.25,5.06,5.63
24.422003746032715,-1.02,2.22,5.94,6.42
24.43160390853882,-1.01,2.14,6.65,7.05
24.451522827148438,-0.85,1.99,6.93,7.25
24.45280694961548,-0.6,1.96,6.87,7.16
24.46100091934204,-0.37,2.07,6.63,6.95
24.472036838531494,-0.17,2.16,6.38,6.73
24.481167793273926,-0.13,2.23,6.13,6.52
24.491071701049805,-0.19,2.35,5.84,6.29
24.50102186203003,-0.3,2.46,5.77,6.27
24.51170301437378,-0.42,2.19,6.06,6.45
24.52149200439453,-0.42,1.54,6.57,6.76
24.53196382522583,-0.26,0.75,7.19,7.23
24.552888870239258,-0.04,0.03,7.67,7.67
24.554141998291016,0.11,-0.41,7.72,7.73
24.560626983642578,0.14,-0.69,7.34,7.37
24.57201385498047,0.04,-0.95,6.49,6.55
24.58104181289673,-0.21,-1.22,5.25,5.39
24.590924739837646,-0.5,-1.57,3.89,4.22
24.6010160446167,-0.69,-1.97,2.58,3.31
24.612030029296875,-0.83,-2.32,1.32,2.79
24.621676921844482,-0.99,-2.61,0.13,2.79
24.631520748138428,-1.13,-2.89,-0.97,3.25
24.653780937194824,-1.25,-3.01,-1.9,3.77
24.655115842819214,-1.36,-2.94,-2.59,4.14
24.660709857940674,-1.42,-2.93,-3.21,4.57
24.670873880386353,-1.41,-2.95,-3.72,4.95
24.683576822280884,-1.37,-2.91,-4.18,5.27
24.69357395172119,-1.37,-2.74,-4.5,5.44
24.704251766204834,-1.34,-2.51,-4.59,5.4
24.71424102783203,-1.28,-2.37,-4.8,5.5
24.72407102584839,-1.14,-2.36,-5.02,5.66
24.73493003845215,-0.91,-2.39,-5.25,5.83
24.755566835403442,-0.75,-2.38,-5.54,6.07
24.756858825683594,-0.6,-2.29,-5.68,6.15
24.763125896453857,-0.4,-2.18,-5.8,6.2
24.77353572845459,-0.15,-2.08,-5.95,6.3
24.78351879119873,0.15,-1.99,-6.1,6.41
24.793547868728638,0.4,-1.92,-6.02,6.33
24.80345392227173,0.56,-1.8,-5.52,5.83
24.814435958862305,0.65,-1.62,-4.86,5.16
24.824259757995605,0.58,-1.41,-4.48,4.73
24.834784984588623,0.55,-1.07,-4.02,4.19
24.856897830963135,0.56,-0.71,-3.49,3.6
24.858208894729614,0.57,-0.47,-3.14,3.22
24.863296031951904,0.58,-0.3,-2.83,2.9
24.873634815216064,0.61,-0.08,-2.46,2.53
24.883497714996338,0.65,0.22,-2.04,2.15
24.89373779296875,0.77,0.49,-1.63,1.86
24.903663873672485,0.95,0.68,-1.25,1.71
24.9135959148407,1.06,0.8,-0.79,1.54
24.92406988143921,1.16,0.89,-0.26,1.48
24.93429684638977,1.28,0.98,0.22,1.62
24.95668077468872,1.45,1.1,0.66,1.93
24.958038806915283,1.9,1.24,1.02,2.48
24.963194847106934,2.63,1.54,1.76,3.51
24.97371792793274,2.55,1.84,2.85,4.24
24.983614921569824,2.3,2.07,3.24,4.48
24.99368381500244,2.52,2.21,3.66,4.96
25.00368595123291,2.48,2.12,4.41,5.48
25.014407873153687,2.2,1.9,5.13,5.89
25.0242657661438,1.92,1.78,5.55,6.13
25.034695863723755,1.68,1.72,5.89,6.36
25.057776927947998,1.55,1.67,6.13,6.53
25.05912685394287,1.38,1.68,6.0,6.38
25.063408851623535,1.31,1.62,5.94,6.29
25.073575019836426,1.31,1.37,5.83,6.13
25.083663940429688,1.33,0.88,5.91,6.12
25.093674898147583,1.3,0.32,6.02,6.16
25.103741884231567,1.23,-0.19,6.24,6.36
25.11442279815674,1.1,-0.69,6.37,6.5
25.124162912368774,1.02,-1.16,6.26,6.44
25.134604930877686,0.99,-1.5,5.8,6.07
25.157742023468018,0.98,-1.69,4.99,5.35
25.159015893936157,0.98,-1.9,3.85,4.4
25.16318392753601,0.94,-2.24,2.66,3.6
25.173606872558594,0.87,-2.54,1.56,3.1
25.183714866638184,0.82,-2.7,0.51,2.86
25.193809032440186,0.77,-2.78,-0.44,2.91
25.203650951385498,0.72,-2.77,-1.28,3.13
25.214541912078857,0.64,-2.76,-2.07,3.5
25.224177837371826,0.51,-2.73,-2.69,3.86
25.23469090461731,0.45,-2.86,-3.29,4.38
25.257003784179688,0.42,-2.9,-3.94,4.91
25.25834369659424,0.4,-2.71,-4.53,5.29
25.263195037841797,0.38,-2.43,-4.89,5.47
25.273677825927734,0.28,-2.17,-5.12,5.56
25.283658027648926,0.15,-1.99,-5.3,5.66
25.293749809265137,-0.01,-1.9,-5.37,5.69
25.30367374420166,-0.23,-1.88,-5.42,5.74
25.314568042755127,-0.44,-1.85,-5.44,5.76
25.324203968048096,-0.59,-1.8,-5.47,5.78
25.334325790405273,-0.73,-1.72,-5.47,5.78
25.358319759368896,-0.87,-1.61,-5.41,5.71
25.35967779159546,-0.97,-1.5,-5.36,5.64
25.363176822662354,-1.09,-1.38,-5.3,5.58
25.37355375289917,-1.21,-1.24,-5.26,5.53
25.38369393348694,-1.32,-0.98,-5.14,5.39
25.393786907196045,-1.42,-0.69,-4.94,5.18
25.40480375289917,-1.52,-0.44,-4.72,4.97
25.414170742034912,-1.48,-0.18,-4.39,4.63
25.42440390586853,-1.33,0.01,-3.99,4.2
25.4344539642334,-1.17,0.18,-3.51,3.7
25.458533763885498,-1.07,0.38,-2.94,3.15
25.459889888763428,-1.08,0.65,-2.34,2.65
25.463151931762695,-1.16,0.94,-1.71,2.27
25.47368097305298,-1.21,1.18,-1.26,2.1
25.483743906021118,-1.19,1.33,-0.6,1.88
25.49376893043518,-1.19,1.02,0.95,1.83
25.504787921905518,-1.35,0.32,2.18,2.58
25.51400089263916,-1.27,-0.02,3.38,3.61
25.524244785308838,-0.92,0.37,4.63,4.73
25.534644842147827,-0.56,1.11,5.89,6.01
25.55840301513672,-0.24,1.62,7.04,7.22
25.559788703918457,0.06,1.8,7.75,7.95
25.563220977783203,0.34,1.72,7.97,8.16
25.57370090484619,0.36,1.53,7.59,7.75
25.583712816238403,0.19,1.28,6.77,6.89
25.593791007995605,0.11,0.99,5.78,5.86
25.603641986846924,0.03,0.9,4.88,4.96
25.614632844924927,-0.05,1.1,4.28,4.41
25.624156951904297,0.02,1.19,4.04,4.21
25.634546756744385,0.13,1.24,4.01,4.19
25.658127784729004,0.34,0.97,4.45,4.56
25.659440994262695,0.55,0.41,5.03,5.07
25.663198947906494,0.76,-0.21,5.7,5.75
25.673857927322388,0.9,-0.69,6.2,6.3
25.683658838272095,0.89,-0.86,6.13,6.25
25.693877696990967,0.79,-0.78,5.57,5.67
25.703856945037842,0.68,-0.81,4.67,4.78
25.71416473388672,0.57,-1.06,3.54,3.73
25.724298000335693,0.41,-1.41,2.32,2.74
25.73461890220642,0.25,-1.7,1.21,2.1
25.758217811584473,0.05,-1.86,0.22,1.87
25.759564876556396,-0.22,-1.99,-0.67,2.11
25.763166904449463,-0.35,-2.21,-1.41,2.64
25.773823738098145,-0.37,-2.27,-1.93,3.0
25.78379201889038,-0.41,-2.36,-2.44,3.41
25.793776035308838,-0.45,-2.6,-3.23,4.17
25.803675889968872,-0.37,-2.66,-3.64,4.52
25.814271926879883,-0.32,-2.51,-4.08,4.8
25.824272871017456,-0.25,-2.36,-4.47,5.06
25.83450484275818,-0.19,-2.24,-4.84,5.33
25.857216835021973,-0.14,-2.13,-5.22,5.63
25.858474731445312,-0.08,-2.02,-5.59,5.94
25.863494873046875,-0.05,-1.86,-5.94,6.22
25.873857975006104,0.06,-1.68,-6.28,6.5
25.883720874786377,0.16,-1.5,-6.59,6.76
25.893847942352295,0.24,-1.33,-6.82,6.95
25.90377187728882,0.32,-1.17,-6.93,7.03
25.914560794830322,0.36,-1.01,-6.96,7.04
25.924134731292725,0.37,-0.84,-6.93,6.99
25.934638023376465,0.33,-0.65,-6.84,6.87
25.956121921539307,0.25,-0.48,-6.65,6.67
25.957404851913452,0.18,-0.35,-6.35,6.36
25.96338176727295,0.09,-0.16,-6.06,6.06
25.97352886199951,-0.05,0.06,-5.85,5.85
25.983767986297607,-0.13,0.26,-5.4,5.4
25.993911743164062,-0.27,0.37,-4.64,4.66
26.003736972808838,-0.56,0.42,-3.7,3.76
26.015055894851685,-0.9,0.48,-2.72,2.9
26.02427387237549,-1.23,0.6,-1.8,2.26
26.03469681739807,-1.28,0.7,-1.08,1.81
26.056742906570435,0.05,0.95,-0.79,1.23
26.058056831359863,2.92,1.32,0.72,3.28
26.06344985961914,2.63,2.06,3.48,4.82
26.07416296005249,2.57,2.97,4.47,5.95
26.083735942840576,3.27,3.0,5.6,7.14
26.09377670288086,3.06,3.12,7.17,8.39
26.10376501083374,2.96,2.95,8.35,9.33
26.114842891693115,2.66,2.4,9.15,9.82
26.124218940734863,2.09,2.11,9.59,10.03
26.134521961212158,1.7,1.68,9.73,10.01
26.156585931777954,1.42,1.31,9.29,9.48
26.15792989730835,1.27,1.2,8.6,8.77
26.163379907608032,1.22,1.07,7.82,7.98
26.174214839935303,1.3,0.64,7.11,7.25
26.183796882629395,1.36,-0.14,6.49,6.63
26.19379472732544,1.45,-0.97,6.09,6.33
26.203747749328613,1.29,-1.55,5.89,6.22
26.21379280090332,1.0,-1.91,5.59,5.99
26.224668979644775,0.75,-2.12,5.45,5.89
26.23471975326538,0.63,-2.09,5.06,5.51
26.255834817886353,0.57,-1.8,4.19,4.59
26.257171869277954,0.49,-1.55,3.06,3.46
26.263426780700684,0.48,-1.67,1.93,2.59
26.274447917938232,0.46,-2.1,0.88,2.32
26.28367590904236,0.52,-2.48,-0.17,2.53
26.293851852416992,0.6,-2.74,-1.14,3.02
26.30394172668457,0.66,-2.81,-1.89,3.45
26.314652919769287,0.67,-2.78,-2.46,3.77
26.32443380355835,0.69,-2.91,-2.83,4.11
26.334455966949463,0.72,-2.94,-3.03,4.28
26.356534957885742,0.61,-2.82,-3.37,4.43
26.35787296295166,0.46,-2.69,-3.83,4.7
26.36349081993103,0.34,-2.49,-4.08,4.79
26.374339818954468,0.23,-2.22,-4.09,4.65
26.383697986602783,0.06,-1.97,-4.2,4.63
26.393844842910767,-0.07,-1.8,-4.21,4.57
26.40462875366211,-0.23,-1.69,-4.13,4.46
26.414321899414062,-0.37,-1.62,-4.04,4.36
26.424524784088135,-0.46,-1.63,-4.07,4.4
26.43478775024414,-0.44,-1.66,-4.18,4.51
26.45958685874939,-0.44,-1.68,-4.33,4.66
26.461102962493896,-0.48,-1.61,-4.52,4.82
26.463304042816162,-0.5,-1.45,-4.73,4.97
26.47448492050171,-0.57,-1.24,-4.85,5.03
26.483792781829834,-0.68,-1.06,-4.92,5.07
26.49371886253357,-0.72,-0.91,-4.96,5.09
26.50377082824707,-0.7,-0.78,-4.89,5.0
26.514588832855225,-0.76,-0.61,-4.75,4.84
26.52430772781372,-0.92,-0.48,-4.64,4.75
26.53451681137085,-0.97,-0.39,-4.47,4.59
26.558496952056885,-0.97,-0.28,-4.18,4.3
26.560226917266846,-0.96,-0.12,-3.8,3.92
26.56325101852417,-0.95,0.1,-3.26,3.39
26.574604034423828,-0.96,0.36,-2.5,2.7
26.583584785461426,-1.01,0.68,-1.83,2.19
26.593446731567383,-1.03,1.04,-1.23,1.91
26.604615926742554,-1.06,1.31,-0.47,1.74
26.614505767822266,-1.04,1.41,0.37,1.79
26.624046802520752,-1.03,1.49,1.22,2.18
26.634524822235107,-1.02,1.61,2.22,2.92
26.65724277496338,-0.93,1.68,3.16,3.69
26.658703804016113,-0.82,1.61,4.12,4.49
26.663283824920654,-0.79,1.46,5.07,5.33
26.673632860183716,-0.81,1.38,5.7,5.92
26.683908939361572,-0.73,1.29,6.08,6.25
26.69366192817688,-0.56,1.16,6.1,6.23
26.703685760498047,-0.38,1.09,5.94,6.05
26.71438694000244,-0.28,1.08,5.69,5.79
26.724268913269043,-0.28,1.15,5.43,5.55
26.734327793121338,-0.31,1.1,5.47,5.58
26.756707906723022,-0.37,0.78,5.84,5.9
26.75803279876709,-0.43,0.37,6.37,6.39
26.763539791107178,-0.37,-0.04,6.98,6.98
26.774840831756592,-0.22,-0.44,7.53,7.54
26.78379201889038,-0.03,-0.72,7.71,7.74
26.7936909198761,0.13,-0.77,7.57,7.61
26.803738832473755,0.17,-0.76,6.98,7.02
26.814615726470947,0.05,-0.78,5.89,5.94
26.824328899383545,-0.14,-0.95,4.49,4.59
26.834574699401855,-0.39,-1.19,3.01,3.26
26.856672763824463,-0.65,-1.47,1.76,2.38
26.857988834381104,-0.94,-1.73,0.66,2.07
26.86356282234192,-1.17,-1.89,-0.29,2.24
26.874857902526855,-1.36,-1.97,-1.02,2.6
26.88373589515686,-1.48,-2.02,-1.62,2.98
26.893739700317383,-1.54,-2.2,-2.21,3.47
26.90359091758728,-1.53,-2.3,-2.72,3.87
26.91468572616577,-1.48,-2.25,-3.11,4.11
26.924412727355957,-1.37,-2.16,-3.43,4.27
26.934714794158936,-1.29,-2.08,-3.61,4.36
26.958364009857178,-1.24,-2.01,-3.8,4.47
26.95966100692749,-1.17,-1.87,-4.3,4.83
26.963459014892578,-1.07,-1.68,-4.54,4.95
26.975141048431396,-0.89,-1.48,-4.69,4.99
26.983853816986084,-0.69,-1.37,-4.83,5.06
26.99392795562744,-0.53,-1.4,-4.97,5.19
27.003742933273315,-0.44,-1.51,-5.04,5.27
27.014677047729492,-0.39,-1.58,-5.04,5.29
27.02427577972412,-0.35,-1.54,-4.93,5.17
27.03507375717163,-0.2,-1.35,-4.67,4.86
27.058218002319336,-0.06,-1.09,-4.56,4.68
27.059459924697876,0.0,-0.74,-4.45,4.51
27.063780784606934,0.12,-0.29,-4.23,4.24
27.074147701263428,0.24,0.22,-3.95,3.96
27.083707809448242,0.3,0.74,-3.62,3.7
27.093817710876465,0.39,1.24,-3.15,3.4
27.1037540435791,0.47,1.65,-2.52,3.04
27.114142894744873,0.65,1.94,-1.84,2.75
27.124249935150146,0.9,2.16,-1.2,2.62
27.13455891609192,1.1,2.36,-0.59,2.66
27.157156944274902,1.21,2.53,0.04,2.8
27.15846586227417,1.26,2.6,0.71,2.97
27.163798809051514,1.27,2.33,2.15,3.41
27.175436973571777,1.22,1.7,3.26,3.87
27.183934926986694,1.09,1.2,3.41,3.77
27.193858861923218,0.9,1.02,3.72,3.96
27.203850746154785,0.75,0.9,4.03,4.19
27.214833736419678,0.67,0.71,4.17,4.28
27.224305868148804,0.64,0.41,4.14,4.2
27.234615802764893,0.69,0.13,3.99,4.05
27.259337902069092,0.75,-0.04,3.76,3.83
27.26102590560913,0.78,-0.18,3.4,3.49
27.263465881347656,0.73,-0.31,2.94,3.04
27.275532722473145,0.66,-0.35,2.36,2.47
27.283753871917725,0.65,-0.35,1.84,1.98
27.293964862823486,0.69,-0.41,1.36,1.57
27.304605960845947,0.75,-0.54,1.07,1.41
27.313884735107422,0.81,-0.77,1.02,1.51
27.324532985687256,0.82,-0.99,1.09,1.68
27.33452272415161,0.78,-1.11,1.43,1.97
27.35686492919922,0.75,-1.23,1.98,2.44
27.358186721801758,0.68,-1.45,2.51,2.97
27.363791942596436,0.67,-1.66,2.75,3.28
27.375539779663086,0.68,-1.73,2.52,3.13
27.383896827697754,0.65,-1.69,2.02,2.71
27.393802881240845,0.61,-1.62,1.47,2.27
27.403722763061523,0.6,-1.66,0.74,1.91
27.414780855178833,0.73,-1.86,-0.21,2.0
27.424503803253174,0.92,-2.0,-1.13,2.47
27.434407711029053,1.03,-2.03,-1.87,2.94
27.45903992652893,1.0,-2.01,-2.4,3.28
27.46040391921997,0.96,-1.93,-2.77,3.5
27.46363592147827,0.87,-1.86,-2.91,3.56
27.47545886039734,0.8,-1.78,-2.9,3.49
27.48386287689209,0.71,-1.61,-2.81,3.31
27.494016885757446,0.63,-1.47,-2.67,3.11
27.503829956054688,0.62,-1.4,-2.51,2.94
27.51491403579712,0.57,-1.28,-2.42,2.79
27.52447485923767,0.48,-1.19,-2.23,2.57
27.534620761871338,0.43,-1.13,-2.24,2.54
27.55738091468811,0.46,-1.08,-2.41,2.68
27.558685779571533,0.47,-1.05,-2.52,2.77
27.563809871673584,0.4,-1.02,-2.69,2.9
27.575700759887695,0.3,-0.99,-2.85,3.03
27.583874702453613,0.14,-0.88,-2.98,3.11
27.593869924545288,-0.01,-0.75,-3.11,3.19
27.603787899017334,-0.17,-0.65,-3.21,3.27
27.61472797393799,-0.25,-0.48,-3.25,3.29
27.624550819396973,-0.21,-0.26,-3.33,3.34
27.634349822998047,-0.13,-0.05,-3.37,3.37
27.65777587890625,-0.01,0.13,-3.34,3.34
27.659445762634277,0.05,0.3,-3.15,3.16
27.66358184814453,0.09,0.47,-2.93,2.96
27.67603302001953,0.19,0.65,-2.64,2.72
27.6837739944458,0.27,0.81,-2.27,2.42
27.69405174255371,0.37,1.0,-1.88,2.16
27.70384383201599,0.36,1.11,-1.31,1.75
27.714781761169434,0.41,1.14,-0.56,1.33
27.724608898162842,0.35,1.22,0.11,1.27
27.734368801116943,0.27,1.31,0.67,1.49
27.758736848831177,0.24,1.45,1.17,1.87
27.760320901870728,0.2,1.52,1.53,2.16
27.763858795166016,0.01,1.58,1.95,2.5
27.776190757751465,-0.16,1.66,2.66,3.13
27.78386092185974,-0.16,1.63,3.28,3.66
27.793986797332764,-0.16,1.51,3.63,3.93
27.8042209148407,-0.14,1.37,3.89,4.12
27.813933849334717,-0.23,1.15,3.93,4.1
27.824575901031494,-0.41,0.99,3.72,3.87
27.834308862686157,-0.56,0.98,3.36,3.54
27.856765747070312,-0.68,1.03,2.98,3.22
27.85843801498413,-0.85,1.12,2.72,3.06
27.86367702484131,-1.12,1.24,2.6,3.09
27.876601696014404,-1.47,1.21,2.85,3.42
27.883826732635498,-1.59,0.88,3.36,3.81
27.893798828125,-1.43,0.36,4.06,4.31
27.903839826583862,-1.15,-0.11,4.72,4.85
27.9139347076416,-0.91,-0.43,5.07,5.16
27.923876762390137,-0.78,-0.57,5.03,5.12
27.93460488319397,-0.8,-0.56,4.63,4.73
27.95687198638916,-0.91,-0.5,3.99,4.12
27.958472728729248,-1.06,-0.69,3.13,3.37
27.963522911071777,-1.15,-1.04,2.26,2.74
27.976621866226196,-1.22,-1.35,1.48,2.34
27.984009742736816,-1.29,-1.61,0.83,2.22
27.99404788017273,-1.33,-1.75,0.28,2.21
28.00387477874756,-1.36,-1.76,-0.15,2.22
28.015009880065918,-1.36,-1.71,-0.56,2.25
28.021915912628174,-1.22,-1.7,-0.8,2.24
28.032166957855225,-1.18,-1.67,-0.92,2.24
28.052539825439453,-1.12,-1.66,-1.14,2.3
28.054056882858276,-0.97,-1.68,-1.4,2.39
28.061086893081665,-0.83,-1.67,-1.77,2.57
28.0714168548584,-0.75,-1.66,-2.23,2.87
28.081379890441895,-0.7,-1.7,-2.74,3.29
28.091346740722656,-0.61,-1.69,-3.23,3.69
28.102237701416016,-0.51,-1.64,-3.62,4.0
28.111906051635742,-0.41,-1.54,-3.93,4.24
28.12221097946167,-0.34,-1.4,-4.23,4.46
28.132202863693237,-0.23,-1.26,-4.4,4.58
28.152758836746216,-0.1,-1.1,-4.47,4.6
28.154244899749756,-0.02,-0.9,-4.51,4.59
28.16110587120056,0.07,-0.68,-4.46,4.51
28.17136788368225,0.13,-0.46,-4.38,4.4
28.181334018707275,0.16,-0.23,-4.3,4.3
28.19139575958252,0.19,0.03,-4.18,4.18
28.201303005218506,0.26,0.27,-4.01,4.02
28.21138286590576,0.37,0.51,-3.78,3.83
28.221320867538452,0.42,0.75,-3.4,3.5
28.232234954833984,0.41,0.95,-2.81,2.99
28.252412796020508,0.41,1.08,-2.02,2.32
28.253883838653564,0.43,1.12,-1.2,1.69
28.261116981506348,0.5,1.16,-0.71,1.44
28.271309852600098,0.52,1.33,-0.21,1.44
28.281346797943115,0.55,1.71,0.16,1.8
28.291412830352783,0.52,1.98,0.56,2.12
28.302248001098633,0.61,1.96,0.9,2.24
28.31203269958496,0.85,1.8,1.09,2.26
28.321764945983887,1.04,1.71,1.25,2.35
28.332656860351562,1.19,1.69,1.49,2.54
28.35371494293213,1.29,1.68,1.89,2.83
28.35515284538269,1.28,1.53,2.32,3.05
28.361045837402344,1.32,1.31,2.7,3.27
28.3712739944458,1.32,1.13,2.99,3.45
28.381404876708984,1.33,1.03,3.15,3.57
28.391538858413696,1.34,0.98,3.09,3.5
28.402039051055908,1.34,0.99,2.9,3.34
28.412142753601074,1.36,1.11,2.68,3.2
28.422589778900146,1.31,1.24,2.5,3.08
28.43220281600952,1.33,1.16,2.51,3.06
28.453887939453125,1.52,0.51,3.03,3.42
28.45550298690796,1.63,-0.25,3.55,3.91
28.461171865463257,1.61,-0.65,3.96,4.32
28.471441745758057,1.54,-0.85,4.45,4.78
28.481387853622437,1.38,-1.04,4.71,5.01
28.491452932357788,1.37,-1.26,4.74,5.09
28.501320838928223,1.39,-1.38,4.27,4.69
28.512388706207275,1.2,-1.55,3.51,4.02
28.52228093147278,1.08,-1.88,2.68,3.44
28.532198905944824,1.09,-2.19,1.77,3.01
28.553079843521118,0.99,-2.33,0.96,2.7
28.55462384223938,0.87,-2.36,0.35,2.53
28.561051845550537,0.8,-2.31,-0.28,2.46
28.57144594192505,0.79,-2.25,-0.73,2.49
28.58157777786255,0.7,-2.21,-1.05,2.54
28.591452836990356,0.54,-2.17,-1.35,2.61
28.601335048675537,0.42,-2.07,-1.73,2.73
28.611501932144165,0.32,-1.93,-2.17,2.92
28.622448921203613,0.21,-1.82,-2.56,3.14
28.63181495666504,0.09,-1.78,-2.91,3.41
28.65246295928955,0.02,-1.77,-3.17,3.63
28.653981924057007,-0.04,-1.75,-3.41,3.83
28.661186933517456,-0.11,-1.67,-3.64,4.0
28.671631813049316,-0.2,-1.58,-3.82,4.13
28.681437969207764,-0.32,-1.46,-4.09,4.35
28.691600799560547,-0.43,-1.34,-4.35,4.57
28.70138692855835,-0.54,-1.17,-4.54,4.71
28.711740970611572,-0.63,-0.93,-4.7,4.83
28.721475839614868,-0.66,-0.72,-4.78,4.87
28.73249578475952,-0.66,-0.55,-4.74,4.81
28.75390887260437,-0.73,-0.4,-4.65,4.72
28.755630016326904,-0.74,-0.3,-4.6,4.66
28.761469841003418,-0.67,-0.17,-4.55,4.6
28.771461009979248,-0.62,-0.01,-4.44,4.48
28.780800819396973,-0.56,0.16,-4.17,4.21
28.791590929031372,-0.48,0.31,-3.85,3.89
28.801469802856445,-0.41,0.53,-3.57,3.63
28.812350749969482,-0.36,0.78,-3.2,3.31
28.82200288772583,-0.36,1.03,-2.66,2.87
28.832329750061035,-0.4,1.21,-1.87,2.26
28.856501817703247,-0.47,1.32,-1.04,1.74
28.858176708221436,-0.56,1.5,-0.25,1.62
28.861053943634033,-0.68,1.63,0.64,1.87
28.87736701965332,-0.79,1.74,1.5,2.42
28.881453037261963,-0.86,1.86,2.44,3.18
28.89230990409851,-0.95,1.98,3.28,3.94
28.90158486366272,-0.9,2.0,3.94,4.5
28.911593914031982,-0.8,1.77,4.58,4.97
28.92259192466736,-0.66,1.41,4.97,5.2
28.93232488632202,-0.5,1.09,5.1,5.23
28.95537281036377,-0.3,0.87,4.93,5.01
28.957016944885254,-0.21,0.84,4.68,4.75
28.961333751678467,-0.3,1.11,4.4,4.54
28.97740888595581,-0.54,1.35,4.3,4.53
28.981331825256348,-0.78,1.18,4.53,4.74
28.99270987510681,-0.85,0.74,4.99,5.11
29.00154399871826,-0.79,0.13,5.57,5.62
29.01248288154602,-0.52,-0.37,5.98,6.01
29.022560834884644,-0.26,-0.77,6.13,6.18
29.032224893569946,-0.06,-1.03,6.09,6.17
29.055216789245605,-0.04,-1.24,5.89,6.01
29.057118892669678,-0.13,-1.46,5.48,5.67
29.06182098388672,-0.34,-1.6,4.75,5.02
29.07758378982544,-0.59,-1.69,3.76,4.16
29.08131980895996,-0.68,-1.85,2.62,3.27
29.09299898147583,-0.73,-2.11,1.49,2.68
29.101529836654663,-0.82,-2.24,0.5,2.43
29.112124919891357,-0.87,-2.18,-0.35,2.37
29.122293949127197,-0.87,-2.09,-1.0,2.47
29.13244891166687,-0.81,-2.02,-1.57,2.68
29.156342029571533,-0.73,-1.91,-1.97,2.83
29.157973766326904,-0.65,-1.77,-2.22,2.91
29.161398887634277,-0.57,-1.6,-2.47,2.99
29.177847862243652,-0.45,-1.43,-2.64,3.03
29.181424856185913,-0.36,-1.34,-2.82,3.14
29.192805767059326,-0.26,-1.27,-2.98,3.24
29.201597929000854,-0.22,-1.23,-3.25,3.48
29.2118878364563,-0.13,-1.23,-3.59,3.79
29.223089933395386,-0.06,-1.2,-3.85,4.03
29.23202896118164,-0.03,-1.2,-4.09,4.26
29.257518768310547,0.0,-1.16,-4.31,4.46
29.25915789604187,0.05,-1.04,-4.39,4.51
29.261144876480103,0.12,-0.86,-4.47,4.55
29.27785873413086,0.12,-0.67,-4.55,4.6
29.281502723693848,0.15,-0.58,-4.59,4.62
29.29275894165039,0.19,-0.5,-4.58,4.61
29.301480770111084,0.25,-0.4,-4.59,4.61
29.31225299835205,0.3,-0.27,-4.51,4.52
29.32361388206482,0.33,-0.1,-4.38,4.39
29.332194805145264,0.35,0.09,-4.22,4.23
29.353494882583618,0.32,0.23,-4.05,4.06
29.355257034301758,0.4,0.33,-3.74,3.77
29.361423015594482,0.5,0.34,-3.39,3.44
29.37151002883911,0.58,0.32,-2.97,3.04
29.38155484199524,0.72,0.32,-2.44,2.56
29.391650915145874,0.79,0.45,-1.89,2.09
