time,ax,ay,az,atotal
0.019228935,0.11,-0.08,0.03,0.13
0.022815704,0.35,-0.15,0.05,0.38
0.028270721,0.37,-0.1,0.05,0.38
0.050750732,0.26,0.01,-0.01,0.26
0.051520824,0.07,0.08,-0.03,0.11
0.057844877,-0.06,0.05,-0.05,0.09
0.067966938,-0.11,-0.03,-0.05,0.12
0.077962875,-0.1,-0.09,-0.08,0.15
0.087955952,-0.07,-0.14,-0.11,0.19
0.097956657,-0.01,-0.13,-0.13,0.18
0.10795188,0.03,-0.09,-0.17,0.19
0.119176865,0.01,-0.02,-0.25,0.25
0.127874851,-0.01,0.07,-0.29,0.29
0.149698734,0.03,0.12,-0.28,0.3
0.151836872,0.09,0.14,-0.22,0.27
0.15866375,0.13,0.12,-0.14,0.22
0.170397758,0.17,0.17,0.1,0.26
0.179171801,0.24,0.25,0.36,0.49
0.189489841,0.38,0.17,0.42,0.59
0.202521801,0.48,0.04,0.38,0.61
0.209899902,0.44,0.01,0.29,0.52
0.223608971,0.27,0.05,0.2,0.33
0.229729652,0.11,0.07,0.11,0.17
0.254015923,0.06,0.01,0.01,0.06
0.25467968,0,-0.06,-0.03,0.06
0.258838654,-0.14,-0.15,-0.01,0.2
0.269043922,-0.24,-0.11,0.02,0.26
0.279278755,-0.25,-0.06,0.04,0.26
0.28975296,-0.17,-0.03,0.1,0.19
0.301316738,-0.08,0.04,0.16,0.18
0.309714794,0.05,0.15,0.24,0.28
0.324264765,0.18,0.29,0.35,0.48
0.329905987,0.29,0.44,0.36,0.63
0.350427866,0.5,0.5,0.13,0.71
0.352060795,0.65,0.37,-0.4,0.84
0.359367847,0.5,0.23,-0.68,0.87
0.370099783,0.31,0.25,-0.5,0.63
0.379707813,0.27,0.2,-0.35,0.48
0.390352726,0.23,0.08,-0.54,0.59
0.401570797,0.1,0.22,-0.69,0.73
0.410238743,0.19,0.4,-0.86,0.96
0.42470789,0.51,0.7,-0.91,1.25
0.430287838,0.58,0.78,-0.64,1.16
0.45078373,0.49,0.49,-0.52,0.86
0.452517986,0.39,0.29,-0.45,0.66
0.459733963,0.39,0.19,-0.43,0.61
0.470217705,0.35,0.26,-0.3,0.52
0.480260849,0.33,0.41,-0.06,0.52
0.490250826,0.4,0.38,0.01,0.55
0.501378775,0.43,0.2,-0.11,0.48
0.510674953,0.47,0.1,0.03,0.48
0.523589849,0.5,0.04,0.49,0.7
0.53080368,0.55,-0.12,0.51,0.75
0.549836874,0.68,-0.33,0.99,1.24
0.551673889,0.8,-0.27,1.03,1.33
0.560117722,0.7,-0.09,1.09,1.29
0.570112705,0.78,0.09,1.04,1.3
0.580323696,0.97,0.25,1.03,1.43
0.590903759,1.04,0.28,0.92,1.41
0.601200819,0.85,0.27,0.71,1.13
0.611086845,0.63,0.27,0.42,0.8
0.625536919,0.34,0.21,0.13,0.42
0.631119728,0.05,0.11,-0.17,0.2
0.650557995,-0.06,0.05,-0.21,0.22
0.652176857,-0.1,-0.02,-0.03,0.1
0.660741806,-0.03,-0.18,0.31,0.35
0.670841694,0.17,-0.25,0.57,0.64
0.681232929,0.36,-0.18,0.63,0.74
0.691498756,0.59,-0.06,0.66,0.88
0.701564789,0.95,0.08,0.52,1.08
0.712050915,1.09,0.35,0.38,1.2
0.725576878,0.8,0.3,0.32,0.91
0.731673717,0.58,-0.01,0.06,0.58
0.749986649,0.39,-0.17,-0.14,0.44
0.751755714,0.21,-0.26,-0.15,0.36
0.761011839,-0.09,-0.21,-0.2,0.3
0.771345854,-0.24,-0.1,-0.4,0.47
0.781527996,-0.28,-0.11,-0.55,0.62
0.791555882,-0.25,-0.12,-0.63,0.68
0.80184269,-0.26,-0.14,-0.74,0.79
0.81194973,-0.32,-0.06,-0.81,0.87
0.824694872,-0.3,-0.03,-0.82,0.87
0.832840919,-0.06,-0.07,-0.61,0.61
0.85330081,0.16,-0.06,-0.38,0.41
0.855037689,0.22,-0.01,-0.2,0.29
0.861894846,0.16,0.01,-0.04,0.16
0.871620655,0.11,0.13,0.1,0.19
0.881774902,0.04,0.13,0.04,0.14
0.892501831,-0.07,0.15,0.14,0.21
0.902167797,-0.07,0.13,0.05,0.15
0.912990808,-0.1,0.09,-0.47,0.48
0.926158905,-0.21,0.11,-0.61,0.65
0.932525873,-0.26,0.06,-0.57,0.62
0.95110178,-0.31,-0.08,-0.52,0.61
0.9529109,-0.38,-0.23,-0.36,0.57
0.961969852,-0.39,-0.17,-0.19,0.46
0.972026825,-0.32,-0.02,-0.13,0.34
0.983401775,-0.25,0.1,-0.21,0.34
0.992448807,-0.39,0.22,-0.36,0.57
1.002703667,-0.58,0.24,-0.56,0.84
1.012680769,-0.82,0.18,-0.65,1.06
1.02666688,-0.91,0.06,-0.65,1.11
1.053581715,-0.88,-0.01,-0.59,1.05
1.055169821,-0.78,-0.21,-0.51,0.95
1.055818796,-0.6,-0.19,-0.25,0.67
1.062298775,-0.5,0.03,0.04,0.5
1.072476864,-0.32,0.1,0.07,0.34
1.083548784,-0.24,0.08,-0.15,0.29
1.09273386,-0.23,-0.02,-0.59,0.63
1.10331583,-0.52,-0.01,-0.92,1.05
1.113638878,-0.89,0.31,-0.66,1.15
1.127263784,-1.06,0.23,-0.3,1.12
1.148769855,-1.06,0.15,0.37,1.13
1.150431871,-1.04,0.25,1.1,1.53
1.152639866,-1.05,0.32,1.54,1.89
1.162584782,-1.07,0.15,1.14,1.57
1.173316956,-1.16,-0.07,0.76,1.38
1.183417797,-1.01,-0.29,0.62,1.22
1.193677902,-0.85,-0.48,0.48,1.08
1.203633785,-0.63,-0.25,0.56,0.87
1.213935852,-0.36,0.27,0.51,0.68
1.228642941,-0.45,0.57,0.55,0.91
1.254304886,-0.74,0.75,0.53,1.17
1.256180763,-0.93,0.84,0.44,1.32
1.256834984,-1.07,0.76,0.32,1.35
1.263179779,-1.19,0.61,0.27,1.36
1.273384809,-1.13,0.59,0.07,1.27
1.283480644,-1.07,0.6,-0.19,1.24
1.293831825,-1.05,0.64,-0.36,1.28
1.304308891,-1.01,0.61,-0.49,1.27
1.314424992,-1.05,0.51,-0.57,1.29
1.328705788,-1.12,0.43,-0.56,1.32
1.352058887,-1.09,0.47,-0.49,1.28
1.353652954,-1.1,0.58,-0.51,1.34
1.354328871,-1.01,0.63,-0.59,1.32
1.363529682,-0.94,0.7,-0.56,1.29
1.374020815,-0.92,0.76,-0.53,1.3
1.383980751,-0.97,0.7,-0.58,1.32
1.394194841,-0.9,0.69,-0.68,1.32
1.404890776,-0.92,0.72,-0.63,1.32
1.414801836,-1.05,0.66,-0.57,1.36
1.429107666,-1.1,0.57,-0.53,1.34
1.451946735,-1.02,0.58,-0.52,1.28
1.453523874,-0.91,0.67,-0.48,1.22
1.454184771,-0.75,0.81,-0.35,1.15
1.46428299,-0.57,0.93,-0.14,1.09
1.474443913,-0.44,0.91,-0.04,1.01
1.48452878,-0.43,0.85,-0.05,0.95
1.494720936,-0.47,0.88,-0.1,1
1.50556469,-0.58,0.95,-0.21,1.13
1.515006781,-0.57,0.95,-0.19,1.12
1.529436827,-0.45,0.88,0.06,0.99
1.552686691,-0.38,0.77,0.32,0.91
1.554232836,-0.33,0.76,0.42,0.92
1.554886818,-0.14,0.9,0.54,1.05
1.564606667,0.05,0.99,0.6,1.15
1.574935913,0.07,0.88,0.45,0.99
1.585003853,-0.1,0.81,0.19,0.83
1.595280647,-0.41,0.84,-0.03,0.93
1.606051922,-0.69,0.89,-0.04,1.12
1.615910769,-0.69,1.04,0.26,1.27
1.630443811,-0.49,1.17,0.63,1.41
1.651177883,-0.24,1.18,0.63,1.35
1.652634859,-0.09,1.18,0.38,1.24
1.654929876,0.04,1.24,0.13,1.24
1.66512084,0.11,1.33,-0.03,1.33
1.675485849,0.08,1.23,-0.04,1.23
1.685481787,0.1,1.17,0.09,1.17
1.695694923,0.22,1.12,0.41,1.21
1.706314802,0.36,0.88,0.63,1.14
1.716100693,0.44,0.55,0.64,0.95
1.730374813,0.39,0.3,0.66,0.82
1.754034996,0.28,0.21,0.98,1.04
1.755581856,0.17,0.04,1.28,1.29
1.75622797,0.24,-0.31,1.15,1.21
1.770392895,0.29,-0.48,0.89,1.05
1.775585651,0.26,-0.55,0.6,0.85
1.785763741,0.35,-0.54,0.36,0.73
1.796013832,0.48,-0.57,0.17,0.76
1.806265831,0.61,-0.67,0,0.9
1.81886673,0.7,-0.72,-0.27,1.03
1.830731869,0.74,-0.7,-0.56,1.16
1.852319717,0.73,-0.66,-0.87,1.31
1.85387373,0.67,-0.63,-1.12,1.44
1.855815887,0.68,-0.57,-1.24,1.52
1.870153904,0.68,-0.57,-1.26,1.54
1.876017809,0.71,-0.62,-1.2,1.52
1.886241913,0.75,-0.67,-1.08,1.47
1.896613836,0.83,-0.71,-0.98,1.46
1.906775951,0.94,-0.75,-0.88,1.49
1.918682814,1.04,-0.8,-0.86,1.56
1.930875778,1.11,-0.82,-0.86,1.62
1.951531887,1.27,-0.83,-0.72,1.67
1.953098774,1.47,-0.81,-0.41,1.72
1.956139803,1.49,-0.86,0.05,1.72
1.971060753,1.31,-1.02,0.6,1.76
1.97653985,1.01,-1.27,0.98,1.89
1.98712492,0.77,-1.4,1.11,1.94
1.996857882,0.61,-1.35,0.96,1.76
2.007823944,0.41,-1.26,0.6,1.45
2.018824816,0.3,-1.14,0.15,1.18
2.031568766,0.34,-1.01,-0.24,1.09
2.04933691,0.56,-0.93,-0.44,1.17
2.05094099,0.79,-0.88,-0.6,1.32
2.056640863,0.84,-0.8,-0.69,1.34
2.069737911,0.7,-0.68,-0.65,1.17
2.077024937,0.54,-0.57,-0.53,0.94
2.087132931,0.49,-0.44,-0.38,0.76
2.09649086,0.69,-0.29,-0.32,0.81
2.106785774,0.89,-0.22,-0.43,1.01
2.11676693,1.08,-0.2,-0.71,1.3
2.127899647,1.25,-0.16,-0.95,1.57
2.14422369,1.34,-0.14,-1.06,1.71
2.1467309,1.38,-0.11,-0.83,1.61
2.156889915,1.45,-0.1,-0.32,1.48
2.166942835,1.4,-0.13,0.18,1.41
2.176914692,1.32,-0.16,0.49,1.41
2.18698287,1.25,-0.13,0.56,1.37
2.196809769,1.19,-0.14,0.45,1.27
2.207175732,1.11,-0.15,0.22,1.14
2.217390776,1.15,-0.11,0.01,1.15
2.228107929,1.32,-0.09,-0.13,1.32
2.246643782,1.38,-0.08,-0.23,1.4
2.247197866,1.37,-0.05,-0.22,1.38
2.257422924,1.26,0.02,-0.2,1.27
2.267573833,1.18,0.17,-0.3,1.22
2.27726078,1.13,0.34,-0.49,1.27
2.287496805,1.18,0.45,-0.73,1.45
2.297221661,1.3,0.45,-1.03,1.71
2.307561874,1.37,0.39,-1.19,1.85
2.317496777,1.33,0.26,-1.19,1.8
2.328578949,1.22,0.13,-1.02,1.59
2.345815659,1.06,0.06,-0.74,1.29
2.347558975,0.86,-0.05,-0.51,1
2.358200788,0.66,-0.09,-0.39,0.77
2.368053913,0.46,-0.1,-0.4,0.61
2.377970695,0.37,-0.06,-0.51,0.63
2.38791275,0.47,0.02,-0.59,0.75
2.397999763,0.7,0.13,-0.47,0.85
2.408004761,0.88,0.09,-0.38,0.96
2.417905807,0.77,0.07,-0.38,0.86
2.429088831,0.5,0.18,-0.22,0.57
2.446053982,0.21,0.29,-0.05,0.36
2.448066711,-0.02,0.38,0.02,0.38
2.458245754,-0.16,0.48,-0.21,0.54
2.468293667,-0.18,0.63,-0.49,0.81
2.478298664,-0.07,0.83,-0.56,1
2.488356829,0.18,0.97,-0.3,1.03
2.498179913,0.61,0.96,0.17,1.15
2.508423805,1,0.75,0.55,1.36
2.518467903,1.16,0.54,0.77,1.49
2.529733658,1.07,0.44,0.91,1.47
2.544895649,0.75,0.43,1.02,1.33
2.548555851,0.43,0.46,1.25,1.39
2.558648825,0.2,0.37,1.46,1.51
2.568689823,0.02,0.15,1.44,1.44
2.578578949,-0.12,0.07,1.23,1.23
2.588767767,-0.27,0.14,0.97,1.01
2.599546909,-0.38,0.26,0.8,0.92
2.608805656,-0.4,0.4,0.82,0.99
2.619116783,-0.29,0.61,0.98,1.19
2.62979269,-0.18,0.83,1.05,1.35
2.644175768,-0.06,1.02,0.96,1.4
2.649624825,0.01,1.16,0.86,1.44
2.659063816,0,1.24,0.9,1.53
2.669143677,0.11,1.26,1.17,1.72
2.679015875,0.28,1.25,1.39,1.89
2.689225674,0.39,1.15,1.37,1.83
2.69954586,0.35,0.94,1.19,1.55
2.709542751,0.14,0.7,0.97,1.2
2.719348907,-0.17,0.41,0.78,0.89
2.730315685,-0.51,0.1,0.77,0.92
2.744783878,-0.8,-0.16,0.76,1.11
2.749559879,-0.87,-0.42,0.63,1.15
2.759469986,-0.77,-0.67,0.37,1.08
2.769524813,-0.61,-0.83,0.05,1.03
2.779486656,-0.44,-0.86,-0.23,0.99
2.789718866,-0.32,-0.8,-0.37,0.93
2.799688816,-0.13,-0.85,-0.41,0.95
2.809691906,0.04,-0.97,-0.55,1.11
2.819798946,0.16,-1.03,-0.77,1.29
2.83075285,0.12,-1.12,-0.91,1.44
2.844858646,-0.06,-1.19,-0.89,1.48
2.850118876,-0.32,-1.19,-0.79,1.46
2.859945774,-0.44,-1.22,-0.73,1.48
2.870068789,-0.5,-1.31,-0.76,1.59
2.880012989,-0.6,-1.33,-0.89,1.7
2.890071869,-0.8,-1.24,-1.05,1.81
2.900120735,-1.02,-1.09,-1.12,1.86
2.910073757,-1.2,-0.9,-0.99,1.79
2.920304775,-1.2,-0.65,-0.58,1.48
2.931129932,-1.11,-0.6,0.12,1.26
2.945132732,-0.96,-0.83,0.52,1.37
2.95041275,-0.85,-0.82,0.57,1.31
2.960297823,-0.84,-0.59,0.4,1.1
2.970539808,-0.93,-0.32,0.18,0.99
2.980466843,-0.91,-0.16,-0.08,0.92
2.99060297,-0.76,-0.02,-0.26,0.8
3.00056386,-0.59,0.04,-0.31,0.66
3.010493755,-0.38,0.1,-0.16,0.42
3.020628929,-0.17,0.03,0.04,0.17
3.0315938,-0.05,-0.12,0.22,0.25
3.044811726,0.03,-0.22,0.41,0.46
3.050837994,0.07,-0.33,0.51,0.61
3.06068778,0.04,-0.43,0.49,0.65
3.070946693,-0.07,-0.49,0.4,0.63
3.080665827,-0.24,-0.61,0.33,0.73
3.091022968,-0.47,-0.75,0.3,0.93
3.100926876,-0.69,-0.85,0.26,1.12
3.110885859,-0.79,-0.82,0.16,1.14
3.121062756,-0.86,-0.74,0.14,1.14
3.132091999,-0.85,-0.64,0.19,1.08
3.145680904,-0.84,-0.56,0.15,1.02
3.151317835,-0.73,-0.45,-0.04,0.85
3.161098957,-0.52,-0.25,-0.24,0.62
3.171476841,-0.31,-0.05,-0.37,0.48
3.181486845,-0.11,0.02,-0.51,0.52
3.191642761,-0.02,0.11,-0.62,0.63
3.201521873,0.02,0.23,-0.54,0.58
3.211652756,0.15,0.33,-0.23,0.42
3.221599817,0.25,0.22,-0.03,0.33
3.247367859,0.17,0.1,0.04,0.2
3.24792099,0.03,0.2,0.11,0.23
3.251833916,-0.09,0.3,0.17,0.35
3.261898994,-0.14,0.3,0.18,0.37
3.271941662,-0.04,0.33,0.13,0.35
3.281962872,0.11,0.37,0.04,0.38
3.292204857,0.29,0.39,-0.02,0.48
3.302050829,0.51,0.34,-0.05,0.61
3.312165737,0.66,0.28,-0.07,0.72
3.322118759,0.66,0.3,-0.06,0.72
3.347762823,0.55,0.38,0,0.66
3.348378658,0.44,0.51,0.23,0.71
3.352215767,0.41,0.52,0.4,0.77
3.362379789,0.37,0.42,0.37,0.67
3.372384787,0.35,0.4,0.24,0.58
3.38327384,0.34,0.5,0.18,0.63
3.392534733,0.35,0.53,0.29,0.69
3.402606964,0.38,0.52,0.5,0.81
3.412460804,0.38,0.51,0.6,0.87
3.422511816,0.35,0.51,0.6,0.86
3.434889793,0.26,0.56,0.54,0.82
3.442726851,0.14,0.66,0.49,0.83
3.463406801,0.08,0.77,0.44,0.89
3.463911772,0.08,0.81,0.33,0.87
3.472757816,0.12,0.8,0.22,0.83
3.483098984,0.16,0.8,0.16,0.83
3.492823839,0.23,0.8,0.18,0.85
3.502834797,0.29,0.78,0.3,0.88
3.513087749,0.32,0.76,0.49,0.95
3.52330184,0.33,0.73,0.73,1.08
3.539798737,0.46,0.76,0.94,1.29
3.543835878,0.61,0.72,1.03,1.39
3.570573807,0.78,0.7,0.93,1.4
3.572236776,0.92,0.81,0.79,1.45
3.57322979,0.97,0.9,0.57,1.44
3.586164951,0.99,0.87,0.4,1.37
3.593379974,0.97,0.73,0.32,1.25
3.603738785,1,0.58,0.34,1.2
3.613905907,0.99,0.47,0.4,1.16
3.624264717,1,0.27,0.42,1.11
3.638383865,1.01,-0.02,0.33,1.06
3.644245863,0.99,-0.2,0.26,1.04
3.668668747,1,-0.37,0.29,1.1
3.669995785,1.06,-0.61,0.36,1.27
3.673680782,1.12,-0.89,0.4,1.48
3.68661499,1.14,-1.15,0.4,1.66
3.694025993,1.12,-1.32,0.31,1.75
3.704442978,1.08,-1.45,0.17,1.81
3.71426177,1.08,-1.49,0.07,1.84
3.724801779,1.19,-1.46,0.29,1.9
3.73930788,1.3,-1.57,0.48,2.09
3.744540691,1.42,-1.61,0.67,2.24
3.767947674,1.46,-1.7,0.76,2.36
3.769489765,1.42,-1.81,0.51,2.35
3.774124861,1.38,-1.74,0.1,2.22
3.786059856,1.27,-1.57,-0.24,2.03
3.79457283,1.24,-1.44,-0.43,1.94
3.804552794,1.33,-1.41,-0.38,1.97
3.814897776,1.49,-1.47,-0.18,2.1
3.825078964,1.66,-1.63,0.08,2.32
3.838942766,1.79,-1.83,0.14,2.56
3.845067978,1.96,-1.89,0.13,2.72
3.867635727,2.05,-1.98,-0.05,2.85
3.869211674,1.86,-1.83,-0.23,2.61
3.874568939,2.18,-1.58,-0.1,2.69
3.886248827,2.82,-1.52,0.07,3.2
3.894839764,3.19,-1.76,0.21,3.64
3.905617714,3.02,-1.99,0.21,3.62
3.915494919,2.49,-2.13,0.18,3.28
3.925729752,2.21,-2.38,0.26,3.25
3.940271854,1.93,-2.42,0.47,3.13
3.94565177,1.58,-2.13,0.69,2.74
3.965949774,1.42,-1.83,0.72,2.42
3.967569828,1.36,-1.52,0.63,2.13
3.974983692,1.26,-1.45,0.34,1.95
3.986761808,1.29,-1.41,0.1,1.91
3.997120857,1.3,-1.24,0.01,1.79
4.005992889,1.67,-1.34,0.08,2.14
4.011740685,1.67,-1.27,0.02,2.09
4.021988869,1.66,-1.14,0.26,2.03
4.05177784,1.4,-0.9,0.49,1.73
4.053304672,1.05,-0.72,0.62,1.41
4.054027796,0.89,-0.49,0.88,1.34
4.061562777,0.81,-0.39,1.17,1.47
4.071801662,0.9,-0.41,1.26,1.6
4.082324982,0.98,-0.49,1.29,1.69
4.091981888,1.14,-0.49,1.44,1.9
4.101734877,1.57,-0.53,1.62,2.31
4.111745834,1.96,-0.57,2.06,2.9
4.121833801,2.15,-0.71,2.36,3.27
4.149095774,2.19,-0.9,2.36,3.34
4.151199818,2.23,-0.98,2.18,3.26
4.152053833,1.93,-1.18,1.99,3.01
4.162291765,1.69,-1.29,1.89,2.84
4.172298908,1.6,-1.29,2.08,2.92
4.18284893,1.54,-1.16,2.37,3.05
4.19285965,1.4,-1.1,2.49,3.06
4.203252792,1.31,-1.2,2.49,3.05
4.213443756,1.13,-1.41,2.21,2.85
4.223423958,0.96,-1.47,1.71,2.45
4.255029678,0.88,-1.45,1.11,2.02
4.256637812,0.94,-1.56,0.65,1.93
4.257312775,0.9,-1.66,0.71,2.01
4.262712955,0.91,-1.51,1.43,2.27
4.27281785,0.76,-1.56,2.12,2.73
4.282847881,0.43,-1.87,2.31,3
4.292967796,0,-2.01,2.42,3.14
4.303514957,-0.32,-1.85,2.45,3.08
4.31394887,-0.07,-1.58,2.56,3
4.323600769,0.64,-1.63,2.59,3.12
4.340710878,1.32,-1.88,2.19,3.17
4.343253851,1.41,-2.03,1.44,2.86
4.367092848,1.07,-1.98,0.78,2.38
4.368562698,0.52,-1.85,0.66,2.03
4.372895718,0.19,-1.73,0.93,1.97
4.386982918,0.1,-1.83,1.24,2.21
4.393215656,-0.04,-2.1,1.76,2.74
4.403349876,-0.2,-2.42,2.13,3.23
4.413649797,-0.16,-2.62,2.28,3.47
4.424368858,-0.24,-2.78,2.25,3.58
4.440146923,-0.49,-2.48,1.61,2.99
4.443892956,-0.89,-2.06,0.72,2.35
4.469526768,-1.67,-1.56,0.25,2.29
4.470215797,-2.15,-1.23,0,2.47
4.473374844,-2.13,-1.62,-0.29,2.69
4.483647823,-1.82,-2.26,-0.67,2.97
4.493761778,-1.27,-2.57,-1.13,3.08
4.503775835,-0.63,-2.79,-1.46,3.21
4.514283657,-0.1,-2.7,-1.67,3.17
4.524343967,0.11,-2.39,-1.89,3.04
4.540246964,0.11,-2.03,-1.97,2.83
4.544214725,0.08,-1.54,-1.7,2.29
4.566331863,0.07,-0.97,-1.22,1.56
4.567654848,0.06,-0.55,-0.92,1.07
4.573713779,0.01,-0.45,-0.61,0.75
4.586929798,-0.15,-0.43,-0.18,0.48
4.594071865,-0.32,-0.49,0.22,0.62
4.604249954,-0.25,-0.55,0.3,0.67
4.614808798,-0.23,-0.5,0.1,0.55
4.624727726,-0.31,-0.33,-0.07,0.45
4.639892817,-0.41,-0.18,0.07,0.45
4.644895792,-0.47,-0.17,0.54,0.73
4.667499781,-0.52,-0.19,0.95,1.09
4.669114828,-0.51,-0.17,1.16,1.27
4.674267769,-0.56,-0.12,1.21,1.33
4.686989784,-0.72,-0.09,1.07,1.29
4.694561958,-0.85,-0.13,0.77,1.15
4.704939842,-0.95,-0.35,0.49,1.12
4.715508938,-1.14,-0.56,0.58,1.39
4.724457741,-1.42,-0.59,0.67,1.67
4.751049995,-1.5,-0.42,0.5,1.63
4.751623869,-1.47,-0.22,0.18,1.49
4.754349709,-1.53,0.04,-0.21,1.54
4.764543772,-1.55,0.24,-0.59,1.67
4.774571896,-1.49,0.28,-0.59,1.62
4.784514904,-1.36,0.28,-0.19,1.4
4.795264721,-1.2,0.25,0.34,1.27
4.805008888,-1.1,0.17,0.7,1.31
4.815720797,-0.99,0.15,0.73,1.23
4.824712753,-0.89,0.25,0.44,1.02
4.839412689,-0.94,0.47,0.04,1.05
4.845668793,-1.12,0.7,-0.11,1.32
4.867123842,-1.23,0.78,-0.04,1.45
4.869139671,-1.27,0.66,-0.03,1.43
4.875261784,-1.29,0.49,-0.11,1.38
4.885497808,-1.38,0.38,-0.17,1.44
4.895411968,-1.57,0.36,-0.36,1.65
4.905357838,-1.81,0.38,-0.5,1.91
4.915758848,-1.94,0.34,-0.63,2.06
4.925847769,-1.97,0.35,-0.73,2.12
4.939041853,-1.88,0.46,-0.73,2.06
4.945733786,-1.71,0.61,-0.66,1.93
4.968555927,-1.49,0.72,-0.57,1.75
4.970380783,-1.25,0.85,-0.47,1.58
4.975584984,-1.06,0.96,-0.46,1.5
4.985541821,-1,1.04,-0.38,1.49
4.995344877,-0.91,1.03,-0.25,1.39
5.005345821,-0.84,0.9,-0.08,1.23
5.017179966,-0.86,0.61,0.14,1.06
5.025878906,-0.9,0.31,0.26,0.98
5.037784815,-0.88,0.21,0.19,0.92
5.045933723,-0.96,0.31,0.05,1.01
5.065811872,-0.97,0.51,-0.12,1.1
5.06712985,-0.84,0.66,-0.28,1.1
5.075717926,-0.74,0.73,-0.4,1.11
5.086198807,-0.65,0.71,-0.3,1
5.096326828,-0.57,0.61,-0.18,0.85
5.106195927,-0.7,0.49,-0.16,0.86
5.116898775,-0.86,0.44,-0.16,0.97
5.126206875,-0.97,0.44,-0.18,1.08
5.138581753,-1,0.49,-0.24,1.13
5.146470785,-0.96,0.63,-0.34,1.19
5.164492846,-0.89,0.81,-0.27,1.23
5.16639781,-0.55,0.81,0.09,0.98
5.176181793,-0.31,0.66,0.17,0.74
5.186788797,-0.36,0.64,-0.02,0.73
5.196737766,-0.61,0.7,-0.25,0.96
5.206721783,-0.85,0.81,-0.38,1.23
5.217916965,-1.01,0.91,-0.35,1.4
5.227109909,-1.12,0.87,-0.31,1.45
5.23958087,-1.14,0.85,-0.3,1.45
5.247412682,-1.14,0.88,-0.33,1.47
5.269209862,-1.11,1,-0.47,1.56
5.27072978,-1.13,1.13,-0.68,1.73
5.277095795,-1.19,1.2,-0.86,1.89
5.287258863,-1.15,1.18,-0.75,1.81
5.297111988,-1.07,1.05,-0.43,1.55
5.307437897,-1.05,0.96,-0.1,1.42
5.318280697,-1.12,0.94,0.17,1.47
5.473739862,-1.19,1.05,0.29,1.61
5.475865841,-1.24,1.2,0.33,1.75
5.476380825,-1.22,1.35,0.22,1.83
5.476918697,-1.15,1.48,0.05,1.87
5.4774189,-0.99,1.55,0.08,1.84
5.477917671,-0.72,1.52,0.41,1.73
5.47840786,-0.52,1.42,0.78,1.7
5.47889185,-0.48,1.37,1.04,1.78
5.479373932,-0.55,1.31,1.19,1.85
5.479829788,-0.63,1.22,1.25,1.85
5.480308771,-0.65,1.14,1.24,1.8
5.48205781,-0.65,0.99,1.11,1.62
5.482594967,-0.6,0.82,0.94,1.38
5.483108997,-0.43,0.67,0.79,1.12
5.483605862,-0.22,0.55,0.64,0.87
5.48428297,-0.07,0.45,0.47,0.65
5.488349915,-0.01,0.39,0.3,0.49
5.497561932,0,0.32,0.16,0.35
5.507576942,-0.02,0.2,0.02,0.2
5.517605782,-0.07,0.02,-0.1,0.12
5.527629852,-0.14,-0.22,-0.12,0.28
5.539084911,-0.13,-0.51,-0.18,0.55
5.547709942,-0.08,-0.76,-0.19,0.78
5.562043667,0.02,-0.91,-0.19,0.92
5.568268776,0.08,-1.01,-0.33,1.06
5.578104973,0.06,-1.09,-0.51,1.2
5.588035822,0.02,-1.18,-0.7,1.37
5.598271847,-0.03,-1.24,-0.9,1.53
5.60816884,-0.11,-1.2,-0.91,1.51
5.618329763,-0.12,-1.12,-0.85,1.41
5.628466845,-0.05,-1.02,-0.87,1.34
5.639747858,0.11,-0.92,-0.93,1.31
5.648246765,0.41,-0.77,-1.1,1.4
5.658728838,0.69,-0.67,-1.22,1.55
5.668532848,0.76,-0.69,-1.11,1.51
5.678463936,0.67,-0.75,-0.76,1.26
5.688763857,0.69,-0.8,-0.36,1.11
5.698696852,0.77,-0.75,-0.03,1.07
5.708695889,0.9,-0.63,0.12,1.1
5.718877792,1.2,-0.43,-0.07,1.27
5.728751659,1.41,-0.46,-0.56,1.58
5.740015984,1.54,-0.56,-0.64,1.75
5.748664856,1.69,-0.62,-0.29,1.82
5.75950098,1.76,-0.8,0.06,1.93
5.768943787,1.53,-0.95,0.19,1.81
5.779116869,1.11,-0.73,0.07,1.33
5.789057732,0.51,-0.37,0.13,0.64
5.799255848,-0.01,-0.34,0.14,0.36
5.809357882,-0.06,-0.56,0.05,0.56
5.81918478,-0.1,-0.69,-0.17,0.71
5.829640865,-0.44,-0.57,-0.54,0.9
5.840441704,-0.58,-0.3,-0.62,0.9
5.849806786,-0.37,-0.23,-0.61,0.74
5.861576796,-0.06,-0.26,-0.6,0.65
5.869462967,0,-0.25,-0.39,0.46
5.879440784,-0.12,-0.18,-0.23,0.31
5.891050816,-0.27,-0.2,-0.08,0.34
5.900980949,-0.36,-0.08,0.02,0.36
5.911168814,-0.4,0.11,0.04,0.41
5.921100855,-0.21,0.4,-0.02,0.45
5.930957794,0.16,0.75,0.07,0.77
5.945403814,0.5,1.05,0.2,1.18
5.950852871,0.78,1.06,0.28,1.34
5.96137476,0.79,0.97,0.15,1.25
5.972509861,0.59,0.91,-0.17,1.09
5.980660915,0.4,0.8,-0.4,0.97
5.990218878,0.31,0.72,-0.57,0.96
6.000176907,0.27,0.65,-0.77,1.04
6.011988878,0.26,0.58,-0.81,1.02
6.022017956,0.21,0.56,-0.86,1.04
6.031581879,0.13,0.55,-0.92,1.07
6.965350866,0.11,0.53,-0.8,0.96
6.967321873,-0.02,0.52,-0.39,0.65
6.969035864,-0.27,0.54,0.25,0.65
6.969630718,-0.48,0.51,0.73,1.01
6.970173836,-0.42,0.49,0.99,1.18
6.970701694,-0.1,0.6,0.85,1.04
6.97122097,0.23,0.73,0.42,0.87
6.971880913,0.36,0.89,0.1,0.96
6.972498894,0.38,1.15,0.03,1.21
6.973041773,0.38,1.38,0.24,1.45
6.974375725,0.42,1.36,0.51,1.51
6.974688768,0.55,1.18,0.59,1.42
6.974982738,0.65,1.02,0.62,1.35
6.975237846,0.67,0.87,0.62,1.26
6.975516796,0.62,0.72,0.72,1.19
6.975802898,0.58,0.55,0.94,1.23
6.976083755,0.67,0.32,1.04,1.27
6.976359844,0.73,0.1,0.99,1.23
6.976632833,0.61,0.08,0.93,1.11
6.976904869,0.34,0.17,0.85,0.93
6.977936745,0.12,0.28,0.67,0.73
6.978212833,0.21,0.43,0.65,0.8
6.978486776,0.48,0.61,0.69,1.03
6.978756905,0.66,0.74,0.67,1.19
6.979096889,0.75,0.79,0.77,1.33
6.979364872,0.72,0.8,0.85,1.37
6.979633808,0.49,0.34,0.37,0.7
6.979901791,0.52,0.3,0.4,0.72
6.980173826,0.41,-0.02,0.06,0.41
6.980434895,0.26,-0.25,-0.21,0.41
6.981823921,0.09,-0.4,-0.17,0.44
6.982225895,0.14,-0.6,-0.11,0.62
6.992655754,0.29,-0.96,-0.41,1.08
6.99296999,0.49,-1.25,-0.84,1.58
6.993273735,0.67,-1.34,-1.28,1.97
6.993565798,0.59,-1.2,-1.58,2.06
6.993915796,0.19,-1.06,-1.59,1.92
6.994277954,-0.29,-1.02,-1.47,1.81
6.994627953,-0.7,-1.09,-1.28,1.82
6.994958878,-0.9,-1.22,-1.01,1.82
6.996356964,-0.87,-1.36,-0.84,1.81
6.996695995,-0.78,-1.48,-0.72,1.82
6.996977806,-0.78,-1.63,-0.59,1.9
6.997254848,-1.05,-1.63,-0.58,2.02
6.997556686,-1.54,-1.33,-0.61,2.12
6.997871876,-2.04,-0.75,-0.66,2.27
6.998204708,-2.19,-0.17,-0.48,2.24
6.99851799,-1.88,0.14,0.04,1.88
6.998820782,-1.24,0.05,0.59,1.37
7.007832766,-0.59,-0.38,0.77,1.04
7.008905888,-0.32,-0.73,0.67,1.04
7.009166718,-0.46,-0.74,0.37,0.94
7.009413719,-0.75,-0.57,0.01,0.94
7.009686947,-0.95,-0.41,-0.32,1.08
7.009950876,-1.05,-0.45,-0.45,1.22
7.01022768,-1.02,-0.56,-0.39,1.22
7.010478973,-0.89,-0.67,-0.13,1.12
7.010728836,-0.69,-0.73,0.04,1
7.01095295,-0.51,-0.73,0.02,0.89
7.011210918,-0.26,-0.69,0,0.73
7.012184858,-0.07,-0.71,-0.12,0.72
7.01243782,0,-0.76,-0.4,0.85
7.012685776,-0.1,-0.64,-0.7,0.95
7.012934685,-0.27,-0.43,-0.68,0.84
7.013182878,-0.39,-0.24,-0.44,0.63
7.013430834,-0.42,-0.23,-0.19,0.51
7.013802767,-0.4,-0.27,-0.17,0.51
7.014070988,-0.39,-0.28,-0.36,0.6
7.014363766,-0.41,-0.16,-0.54,0.69
7.014596939,-0.46,0.07,-0.62,0.77
7.015487671,-0.54,0.3,-0.74,0.96
7.025134802,-0.6,0.52,-0.95,1.23
7.02536869,-0.82,0.72,-0.97,1.46
7.025598764,-1.05,0.8,-0.67,1.48
7.025817871,-1.1,0.67,-0.27,1.31
7.026040792,-1.02,0.46,0.19,1.13
7.0262568,-0.83,0.33,0.77,1.17
7.026469707,-0.51,0.39,1.21,1.36
7.026689768,-0.31,0.57,1.27,1.42
7.026907921,-0.24,0.85,0.93,1.28
7.027739763,-0.23,1.17,0.54,1.3
7.027963877,-0.33,1.34,0.13,1.38
7.028187752,-0.48,1.36,-0.09,1.44
7.0284338,-0.65,1.28,-0.29,1.46
7.0286479,-0.78,1.21,-0.4,1.49
7.028870821,-0.71,1.09,-0.17,1.31
7.02909565,-0.55,1,0.27,1.17
7.029308796,-0.46,0.96,0.66,1.25
7.029531956,-0.37,0.97,0.86,1.34
7.029751778,-0.39,1.07,0.83,1.4
7.030544758,-0.54,1.14,0.81,1.49
7.030743837,-0.7,1.18,0.68,1.53
7.03095293,-0.81,1.11,0.43,1.43
7.031158924,-0.8,0.99,0.2,1.28
7.031359673,-0.68,0.86,0.23,1.12
7.03155899,-0.51,0.79,0.49,1.06
7.031755924,-0.4,0.72,0.59,1.01
7.031961918,-0.27,0.63,0.64,0.93
7.032158852,-0.17,0.56,0.85,1.03
7.03793478,-0.08,0.41,0.99,1.07
7.044369698,-0.05,0.28,0.88,0.92
7.054241657,-0.02,0.29,0.53,0.6
7.064146996,-0.04,0.39,0.07,0.39
7.074091911,0.05,0.54,-0.23,0.58
7.08412075,0.13,0.66,-0.26,0.72
7.094388962,0.16,0.69,0.11,0.71
7.104273796,0.27,0.53,0.73,0.94
7.114329815,0.47,0.04,1.15,1.24
7.124610901,0.81,-0.57,1.24,1.58
7.134494781,1.07,-1.08,1.12,1.88
7.145408869,1.15,-1.44,0.97,2.08
7.157470703,1.18,-1.59,0.78,2.12
7.164655685,1.13,-1.67,0.62,2.1
7.174757957,1.07,-1.72,0.51,2.08
7.185042858,1.05,-1.72,0.32,2.04
7.194937706,1.1,-1.56,0.14,1.91
7.20516777,1.11,-1.34,0.17,1.74
7.215392828,1.08,-1.22,0.1,1.63
7.225577831,1.07,-1.16,0.02,1.57
7.235612869,1.06,-1.16,0.09,1.57
7.247348785,1.04,-1.16,0.09,1.56
7.268379688,0.99,-1.1,-0.01,1.47
7.268905878,1.01,-1.03,-0.12,1.44
7.275281906,0.98,-0.91,-0.16,1.34
7.285310745,0.92,-0.83,-0.1,1.24
7.295351982,0.87,-0.73,-0.08,1.13
7.305422783,0.79,-0.67,-0.18,1.05
7.316007853,0.74,-0.67,-0.35,1.05
7.325908661,0.74,-0.67,-0.52,1.12
7.336015701,0.72,-0.7,-0.55,1.14
7.348546982,0.69,-0.75,-0.57,1.16
7.366982937,0.65,-0.8,-0.61,1.19
7.36807394,0.62,-0.78,-0.59,1.15
7.375737667,0.64,-0.7,-0.56,1.1
7.390580654,0.67,-0.64,-0.64,1.12
7.39623785,0.72,-0.63,-0.67,1.16
7.406370878,0.78,-0.56,-0.6,1.13
7.41591692,0.83,-0.49,-0.43,1.05
7.425869942,0.8,-0.49,-0.24,0.96
7.436025858,0.69,-0.52,-0.07,0.86
7.446713924,0.54,-0.55,0.1,0.77
7.457169771,0.39,-0.5,0.2,0.66
7.466204882,0.26,-0.32,0.18,0.44
7.475968838,0.12,-0.12,0.13,0.21
7.48603487,0.06,0.12,0,0.13
7.496045828,0.09,0.36,-0.09,0.38
7.506057739,0.03,0.43,0.01,0.43
7.516344786,0.02,0.41,0.19,0.45
7.526323795,0.1,0.33,0.46,0.57
7.536332846,0.25,0.26,0.59,0.69
7.546326876,0.42,0.26,0.7,0.85
7.556451797,0.54,0.25,0.72,0.93
7.566573858,0.64,0.22,0.67,0.95
7.576638699,0.74,0.17,0.6,0.96
7.588288784,0.77,0.13,0.51,0.93
7.596972942,0.83,0.11,0.43,0.94
7.615220785,0.84,0.12,0.4,0.93
7.616807938,0.82,0.16,0.34,0.9
7.626811981,0.73,0.08,0.33,0.8
7.637349844,0.49,-0.06,0.41,0.64
7.647298813,0.16,-0.17,0.47,0.52
7.657476902,-0.06,-0.23,0.41,0.47
7.667803764,-0.18,-0.12,0.33,0.39
7.677594662,-0.21,0.14,0.3,0.39
7.689954758,-0.22,0.39,0.34,0.56
7.697690964,-0.08,0.59,0.45,0.74
7.71646595,0.13,0.65,0.51,0.83
7.717416763,0.33,0.65,0.57,0.92
7.727702856,0.48,0.61,0.66,1.01
7.737679958,0.52,0.53,0.79,1.08
7.747665882,0.48,0.5,1.03,1.24
7.758165836,0.38,0.47,1.19,1.33
7.768122673,0.34,0.33,1.24,1.32
7.778408766,0.37,0.13,1.17,1.23
7.791835785,0.37,0.1,1,1.07
7.798563957,0.38,0.24,0.81,0.92
7.820350647,0.42,0.44,0.52,0.8
7.821505785,0.45,0.6,0.3,0.8
7.828200817,0.43,0.7,0.24,0.85
7.838151932,0.4,0.65,0.29,0.81
7.848249912,0.42,0.39,0.41,0.7
7.858591795,0.49,0.02,0.62,0.79
7.869174957,0.51,-0.35,0.73,0.95
7.878912926,0.5,-0.66,0.76,1.12
7.893758774,0.49,-0.9,0.67,1.22
7.899652958,0.46,-1.03,0.51,1.23
7.923256874,0.44,-1.12,0.25,1.22
7.924450874,0.5,-1.19,-0.07,1.29
7.928443909,0.51,-1.16,-0.37,1.32
7.938657761,0.46,-1.04,-0.55,1.26
7.94884181,0.42,-0.92,-0.73,1.24
7.95903492,0.37,-0.85,-0.82,1.23
7.969055653,0.31,-0.87,-0.9,1.28
7.979513645,0.2,-0.89,-0.86,1.25
7.992642879,0.04,-0.91,-0.79,1.2
7.999437809,-0.15,-0.89,-0.74,1.16
8.019262791,-0.23,-0.85,-0.68,1.11
8.020764828,-0.25,-0.85,-0.66,1.1
8.028925896,-0.25,-0.79,-0.65,1.05
8.039177895,-0.24,-0.73,-0.55,0.94
8.048924923,-0.26,-0.71,-0.43,0.86
8.059414864,-0.26,-0.79,-0.45,0.94
8.069439888,-0.29,-0.81,-0.44,0.96
8.079916,-0.36,-0.78,-0.32,0.91
8.093133926,-0.34,-0.72,-0.17,0.81
8.100337982,-0.21,-0.69,-0.08,0.72
8.12191987,-0.12,-0.66,0.03,0.67
8.123234749,-0.04,-0.59,0.22,0.63
8.129396915,-0.01,-0.56,0.45,0.71
8.139446735,-0.01,-0.52,0.64,0.82
8.149762869,-0.06,-0.5,0.73,0.88
8.159965992,-0.12,-0.57,0.74,0.94
8.169914722,-0.23,-0.63,0.68,0.95
8.179994822,-0.27,-0.57,0.68,0.92
8.193384647,-0.27,-0.43,0.7,0.86
8.220964909,-0.25,-0.36,0.62,0.75
8.222275734,-0.2,-0.34,0.45,0.59
8.222748756,-0.22,-0.34,0.3,0.5
8.229850769,-0.21,-0.36,0.19,0.45
8.239947796,-0.21,-0.4,0.12,0.46
8.250902653,-0.21,-0.48,0.18,0.55
8.260371685,-0.16,-0.58,0.31,0.67
8.270256996,-0.09,-0.66,0.47,0.81
8.280631781,0,-0.74,0.58,0.94
8.294223785,0.09,-0.85,0.66,1.07
8.320498943,0.08,-0.9,0.66,1.11
8.321721792,0.02,-0.87,0.61,1.06
8.322357655,-0.03,-0.79,0.54,0.95
8.330159664,-0.06,-0.66,0.43,0.79
8.340444803,-0.15,-0.57,0.42,0.72
8.350762844,-0.26,-0.56,0.48,0.78
8.360595703,-0.33,-0.66,0.48,0.88
8.371005774,-0.37,-0.71,0.41,0.89
8.38108778,-0.41,-0.64,0.32,0.82
8.393638849,-0.46,-0.49,0.25,0.71
8.419988871,-0.45,-0.31,0.22,0.58
8.421319962,-0.41,-0.19,0.16,0.47
8.42191577,-0.37,-0.12,0.04,0.39
8.430625916,-0.32,-0.08,-0.07,0.33
8.44083786,-0.28,-0.05,-0.13,0.31
8.450786829,-0.23,-0.05,-0.09,0.25
8.461146832,-0.17,-0.02,0.06,0.18
8.471263885,-0.12,-0.01,0.2,0.23
8.481348991,0,-0.04,0.38,0.38
8.4946208,0.2,-0.08,0.53,0.57
8.519081831,0.37,-0.14,0.7,0.8
8.520374775,0.51,-0.22,0.82,0.99
8.520913839,0.58,-0.28,0.83,1.05
8.531071663,0.58,-0.31,0.72,0.97
8.541322708,0.46,-0.33,0.56,0.79
8.551539898,0.23,-0.35,0.39,0.57
8.56118679,0.03,-0.38,0.27,0.46
8.570924759,-0.11,-0.37,0.23,0.44
8.580992699,-0.21,-0.37,0.34,0.54
8.592103958,-0.23,-0.35,0.5,0.65
8.610525846,-0.24,-0.31,0.66,0.76
8.610953808,-0.21,-0.3,0.81,0.88
8.621166706,-0.14,-0.26,0.86,0.9
8.631090879,-0.11,-0.22,0.81,0.84
8.641253948,-0.13,-0.22,0.59,0.64
8.651344776,-0.18,-0.18,0.38,0.45
8.661973953,-0.25,-0.15,0.23,0.37
8.671888828,-0.35,-0.11,0.18,0.4
8.682181835,-0.5,-0.06,0.2,0.54
8.694297791,-0.49,0.01,0.24,0.54
8.717644691,-0.36,0.03,0.27,0.45
8.718921661,-0.15,-0.06,0.3,0.34
8.721776962,0.07,-0.2,0.4,0.45
8.732101917,0.21,-0.38,0.54,0.69
8.742220879,0.24,-0.53,0.66,0.87
8.752411842,0.21,-0.67,0.67,0.97
8.762640953,0.17,-0.81,0.55,0.99
8.772576809,0.13,-0.86,0.4,0.95
8.782890797,0.06,-0.87,0.23,0.9
8.795975685,0.02,-0.88,0.01,0.88
8.818442822,-0.04,-0.87,-0.2,0.89
8.819705963,-0.05,-0.83,-0.34,0.89
8.822156906,-0.05,-0.75,-0.52,0.91
8.832514763,-0.14,-0.68,-0.57,0.89
8.84263587,-0.22,-0.67,-0.52,0.87
8.8531847,-0.25,-0.73,-0.37,0.85
8.862822771,-0.26,-0.83,-0.15,0.88
8.873585701,-0.2,-0.92,0.01,0.94
8.883381844,-0.17,-0.92,0.16,0.94
8.896798849,-0.13,-0.93,0.21,0.96
8.919571877,-0.13,-0.87,0.1,0.88
8.920711994,-0.12,-0.71,-0.04,0.72
8.922801971,-0.1,-0.55,-0.16,0.58
8.937206745,-0.03,-0.4,-0.19,0.44
8.943003654,0.15,-0.32,0.03,0.35
8.953436852,0.36,-0.39,0.36,0.64
8.9633708,0.53,-0.5,0.64,0.96
8.973937988,0.64,-0.55,0.78,1.14
8.985940933,0.67,-0.54,0.77,1.15
8.997191906,0.59,-0.44,0.6,0.94
9.020029783,0.49,-0.36,0.4,0.72
9.02121973,0.45,-0.36,0.25,0.62
9.023191929,0.47,-0.42,0.15,0.64
9.037237644,0.52,-0.49,0.17,0.73
9.043367863,0.48,-0.57,0.35,0.82
9.053805828,0.34,-0.66,0.48,0.88
9.064137936,0.19,-0.73,0.46,0.88
9.074277878,0.13,-0.74,0.33,0.82
9.08553791,0.07,-0.75,0.2,0.77
9.097418785,0.06,-0.72,0,0.72
9.119485855,0.18,-0.64,-0.21,0.69
9.12088871,0.32,-0.49,-0.34,0.67
9.123637676,0.42,-0.37,-0.34,0.65
9.13785696,0.57,-0.35,-0.41,0.78
9.143898964,0.74,-0.31,-0.43,0.91
9.154188871,0.83,-0.13,-0.35,0.91
9.164168835,0.94,0.03,-0.17,0.95
9.1748209,0.97,0.1,-0.04,0.97
9.185618877,0.99,0.09,0.03,0.99
9.197979927,0.94,0.06,0.07,0.94
9.220049858,0.89,-0.01,0.13,0.89
9.221266747,0.87,-0.05,0.32,0.92
9.22409296,0.88,-0.04,0.57,1.04
9.237511873,0.94,-0.07,0.71,1.18
9.244358778,1.01,-0.14,0.68,1.22
9.254661798,1,-0.15,0.59,1.17
9.264681816,0.85,-0.07,0.59,1.03
9.275112867,0.7,-0.04,0.76,1.03
9.285352707,0.72,-0.12,0.91,1.16
9.299768925,0.8,-0.28,0.93,1.25
9.321219921,0.88,-0.36,0.91,1.31
9.322532654,0.92,-0.3,0.86,1.29
9.32433486,0.9,-0.19,0.87,1.26
9.33667779,0.96,-0.11,1,1.39
9.344746828,1.05,-0.07,0.98,1.43
9.354839802,1.06,-0.05,0.85,1.35
9.365014791,1.03,0,0.73,1.26
9.37519598,0.92,0.12,0.69,1.15
9.385784864,0.76,0.19,0.7,1.05
9.39889884,0.74,0.17,0.76,1.07
9.419522762,0.82,0.07,0.77,1.12
9.420783997,0.88,-0.03,0.73,1.14
9.424768925,0.89,-0.09,0.6,1.07
9.436362743,0.82,-0.14,0.44,0.94
9.445302963,0.73,-0.18,0.3,0.8
9.455503941,0.69,-0.19,0.28,0.76
9.4655509,0.81,-0.2,0.37,0.91
9.475604773,0.94,-0.28,0.43,1.07
9.486250877,1,-0.38,0.42,1.14
9.499466896,1,-0.46,0.31,1.14
9.51935482,0.91,-0.41,0.21,1.01
9.520656824,0.79,-0.34,0.18,0.87
9.525580883,0.72,-0.31,0.23,0.81
9.536997795,0.75,-0.3,0.28,0.85
9.54571867,0.79,-0.33,0.3,0.9
9.555972815,0.84,-0.35,0.32,0.96
9.565848827,0.85,-0.31,0.33,0.96
9.576077938,0.91,-0.29,0.39,1.03
9.586482763,0.92,-0.31,0.41,1.05
9.619763851,0.87,-0.39,0.4,1.03
9.621333838,0.81,-0.44,0.47,1.03
9.62187767,0.78,-0.46,0.52,1.04
9.625779867,0.79,-0.49,0.54,1.07
9.637788773,0.82,-0.56,0.5,1.11
9.646019936,0.83,-0.63,0.43,1.12
9.656384945,0.76,-0.7,0.44,1.12
9.666204929,0.63,-0.71,0.44,1.04
9.676966667,0.46,-0.7,0.41,0.93
9.687100887,0.33,-0.73,0.36,0.87
9.718970776,0.28,-0.75,0.16,0.81
9.720260859,0.17,-0.72,0.01,0.73
9.720775843,-0.02,-0.66,-0.07,0.66
9.726364851,-0.07,-0.66,-0.14,0.67
9.737118721,-0.01,-0.64,-0.14,0.65
9.746513844,0.03,-0.61,-0.12,0.62
9.756941795,0.06,-0.55,-0.14,0.57
9.76786685,0.04,-0.51,-0.17,0.53
9.777395725,-0.01,-0.42,-0.23,0.47
9.787410736,-0.09,-0.36,-0.24,0.44
9.820327759,-0.13,-0.37,-0.23,0.45
9.821614742,-0.19,-0.4,-0.2,0.48
9.822136879,-0.2,-0.43,-0.14,0.49
9.826652765,-0.17,-0.46,-0.12,0.5
9.837386847,-0.13,-0.47,-0.18,0.51
9.846915722,-0.01,-0.45,-0.16,0.47
9.857406855,0.16,-0.48,-0.1,0.51
9.867808819,0.24,-0.52,0.05,0.57
9.87788868,0.31,-0.55,0.28,0.69
9.887779713,0.34,-0.64,0.42,0.83
9.923036814,0.32,-0.73,0.38,0.88
9.924393654,0.25,-0.8,0.22,0.86
9.924879789,0.16,-0.87,-0.05,0.88
9.926870823,0.01,-0.88,-0.36,0.95
9.93763876,-0.27,-0.78,-0.51,0.97
9.947179794,-0.53,-0.61,-0.52,0.96
9.957767963,-0.62,-0.47,-0.43,0.88
9.967919827,-0.62,-0.36,-0.35,0.79
9.977808952,-0.58,-0.29,-0.42,0.77
9.9882617,-0.53,-0.23,-0.56,0.8
10.02126884,-0.57,-0.13,-0.66,0.88
10.02263069,-0.71,-0.07,-0.73,1.02
10.02314568,-0.92,-0.08,-0.68,1.14
10.02770782,-1.2,-0.1,-0.42,1.27
10.0378058,-1.4,-0.09,-0.02,1.4
10.04762268,-1.36,-0.1,0.25,1.38
10.05825877,-1.2,-0.09,0.23,1.22
10.06820965,-1.09,-0.03,0.06,1.09
10.07858086,-0.97,0.07,-0.09,0.97
10.08890676,-0.95,0.2,-0.14,0.98
10.12270975,-1,0.29,-0.08,1.04
10.1241107,-0.98,0.25,0.05,1.01
10.12460184,-0.91,0.1,0.16,0.92
10.12806797,-0.88,-0.04,0.35,0.94
10.13815594,-0.86,-0.09,0.34,0.92
10.14826393,-0.81,-0.04,0.33,0.87
10.15859699,-0.77,0.02,0.33,0.83
10.16874075,-0.79,0.05,0.31,0.85
10.17879868,-0.82,0.06,0.24,0.85
10.18901873,-0.82,0.08,0.2,0.84
10.2237277,-0.83,0.06,0.14,0.84
10.22490788,-0.87,0,-0.05,0.87
10.22547293,-0.96,-0.1,-0.21,0.98
10.22858667,-1.09,-0.14,-0.24,1.12
10.23878479,-1.23,-0.12,-0.2,1.25
10.24857688,-1.28,-0.06,-0.11,1.28
10.25839186,-1.3,0.07,-0.01,1.3
10.26845169,-1.19,0.18,0.08,1.2
10.27847767,-1.05,0.22,0.01,1.07
10.28859997,-0.92,0.24,-0.24,0.98
10.31496882,-0.83,0.33,-0.64,1.09
10.31542683,-0.81,0.4,-1.07,1.4
10.31866789,-0.86,0.4,-1.37,1.66
10.32865381,-0.93,0.42,-1.33,1.67
10.33867288,-0.87,0.36,-0.84,1.26
10.34867382,-0.81,0.24,-0.35,0.91
10.35883784,-0.61,0.23,-0.06,0.65
10.36897993,-0.39,0.27,-0.04,0.47
10.37891197,-0.27,0.26,-0.18,0.41
10.38941288,-0.27,0.26,-0.28,0.46
10.41569877,-0.46,0.3,-0.24,0.59
10.41671276,-0.61,0.37,-0.13,0.72
10.41913891,-0.71,0.4,-0.15,0.82
10.42898798,-0.71,0.48,-0.29,0.9
10.43923879,-0.6,0.56,-0.3,0.87
10.45064282,-0.57,0.62,-0.29,0.89
10.45971489,-0.58,0.78,-0.15,0.98
10.4698329,-0.69,0.88,0.11,1.12
10.47971296,-0.81,0.91,0.39,1.27
10.49008274,-0.87,0.93,0.51,1.37
10.50415373,-0.86,0.92,0.32,1.29
10.51009274,-0.83,0.97,0.02,1.27
10.536376,-0.91,1.05,-0.13,1.39
10.53782368,-1.04,1.18,-0.11,1.57
10.53968787,-1.14,1.28,0.11,1.71
10.55362272,-1.19,1.32,0.33,1.8
10.56016088,-1.19,1.27,0.43,1.79
10.57026672,-1.25,1.07,0.48,1.71
10.58055878,-1.23,0.94,0.49,1.62
10.59046888,-1.24,0.91,0.51,1.62
10.60500097,-1.15,0.94,0.45,1.55
10.61091995,-0.91,1.1,0.31,1.46
10.63857365,-0.58,1.39,0.13,1.51
10.63991284,-0.24,1.64,-0.02,1.65
10.64045382,-0.09,1.67,-0.1,1.67
10.65336275,-0.09,1.54,-0.09,1.54
10.66050577,-0.17,1.34,0.14,1.35
10.67069578,-0.24,1.2,0.51,1.32
10.68063879,-0.23,1.04,0.68,1.26
10.6909008,-0.07,0.83,0.66,1.06
10.70488882,0.07,0.61,0.49,0.78
10.71095371,0.21,0.45,0.13,0.51
10.73776984,0.22,0.32,-0.21,0.44
10.73891783,0.16,0.25,-0.38,0.48
10.74057484,0.07,0.19,-0.22,0.29
10.75356674,0,0.11,-0.06,0.12
10.7609067,-0.03,-0.09,0.01,0.09
10.77107573,0,-0.32,0,0.32
10.78124571,0.04,-0.53,-0.05,0.53
10.79167891,0.04,-0.64,-0.13,0.65
10.80460787,0.08,-0.65,-0.27,0.7
10.81193972,0.12,-0.69,-0.45,0.83
10.83780289,0.18,-0.71,-0.58,0.93
10.83912086,0.21,-0.66,-0.53,0.87
10.84090781,0.21,-0.71,-0.35,0.81
10.85321784,0.17,-0.83,-0.21,0.87
10.86143279,0.07,-0.92,-0.16,0.93
10.87173581,0.02,-0.99,-0.2,1.01
10.88158178,0.02,-1.05,-0.37,1.11
10.89232683,0.07,-1.15,-0.53,1.26
10.90535069,0.11,-1.12,-0.63,1.28
10.91225481,0.11,-0.98,-0.51,1.11
10.93604088,0.17,-0.81,-0.25,0.86
10.93737173,0.28,-0.78,0.08,0.83
10.94147873,0.41,-0.97,0.35,1.1
10.9535048,0.48,-1.16,0.56,1.37
10.96182585,0.48,-1.27,0.67,1.51
10.97227573,0.42,-1.29,0.65,1.5
10.98212481,0.41,-1.24,0.58,1.42
10.99265099,0.47,-1.14,0.43,1.3
11.00643682,0.45,-0.99,0.31,1.13
11.01276278,0.42,-0.9,0.19,1.01
11.03775692,0.36,-0.77,0.05,0.85
11.03927565,0.28,-0.69,0,0.74
11.04186678,0.24,-0.56,0.08,0.61
11.05309081,0.21,-0.48,0.14,0.54
11.0624578,0.18,-0.45,0.02,0.48
11.07248497,0.19,-0.43,-0.14,0.49
11.08269787,0.2,-0.37,-0.31,0.52
11.09316587,0.12,-0.32,-0.4,0.52
11.10656166,-0.01,-0.31,-0.37,0.48
11.11312389,-0.16,-0.37,-0.23,0.46
11.13743067,-0.28,-0.45,0.02,0.53
11.13893175,-0.33,-0.46,0.23,0.61
11.14234972,-0.32,-0.41,0.37,0.63
11.15301585,-0.21,-0.34,0.39,0.55
11.16283584,-0.12,-0.26,0.35,0.45
11.17295265,0,-0.14,0.22,0.26
11.18434882,0.11,0,0.04,0.11
11.19330883,0.2,0.13,-0.01,0.23
11.20571566,0.29,0.21,0.09,0.36
11.21354866,0.3,0.2,0.2,0.41
11.23611689,0.3,0.14,0.31,0.45
11.23749876,0.31,-0.02,0.3,0.43
11.24311495,0.32,-0.11,0.17,0.37
11.25405383,0.34,-0.03,0.07,0.34
11.26324272,0.3,0.16,0.25,0.42
11.27350283,0.23,0.25,0.47,0.57
11.28436089,0.12,0.23,0.55,0.6
11.2936008,0.01,0.22,0.49,0.53
11.30622983,0.01,0.11,0.37,0.38
11.31346583,0.02,-0.01,0.32,0.32
11.33592486,-0.01,-0.07,0.28,0.28
11.33743191,-0.04,-0.07,0.28,0.29
11.34335375,-0.05,0,0.18,0.18
11.35478377,-0.04,0.1,-0.02,0.1
11.36353493,-0.05,0.21,-0.04,0.21
11.37421894,-0.11,0.37,0.03,0.38
11.38417888,-0.09,0.46,0.03,0.46
11.3944869,-0.06,0.37,-0.13,0.39
11.40792799,-0.01,0.34,-0.23,0.41
11.41431475,0.01,0.44,-0.15,0.46
11.43828177,0.04,0.49,0,0.49
11.43959188,0.11,0.54,0.09,0.55
11.44382787,0.19,0.53,0.15,0.58
11.4543438,0.26,0.51,0.24,0.62
11.46420383,0.26,0.57,0.31,0.69
11.47451591,0.18,0.64,0.43,0.79
11.48451686,0.12,0.6,0.56,0.82
11.49446082,0.25,0.47,0.58,0.78
11.50804567,0.45,0.34,0.53,0.77
11.51487684,0.55,0.38,0.54,0.85
11.53504086,0.42,0.52,0.62,0.91
11.53620768,0.26,0.58,0.62,0.88
11.54417777,0.21,0.43,0.58,0.75
11.55441666,0.14,0.29,0.51,0.6
11.56500578,0.05,0.32,0.39,0.5
11.57501698,-0.03,0.34,0.2,0.39
11.58480787,-0.03,0.4,-0.01,0.4
11.5948267,-0.06,0.39,-0.09,0.4
11.60438871,-0.1,0.41,-0.1,0.43
11.61427069,-0.1,0.45,-0.1,0.47
11.63370466,-0.07,0.48,-0.2,0.52
11.63512993,0,0.48,-0.39,0.61
11.64486694,0.1,0.47,-0.64,0.8
11.65501881,0.15,0.41,-0.87,0.97
11.66537476,0.09,0.36,-0.97,1.03
11.67564082,-0.07,0.3,-0.93,0.97
11.68567586,-0.25,0.24,-0.77,0.84
11.69606781,-0.48,0.2,-0.66,0.84
11.7067709,-0.63,0.15,-0.6,0.88
11.71614075,-0.61,0.12,-0.68,0.92
11.73639584,-0.45,0.09,-0.94,1.04
11.73761678,-0.29,0.05,-1.27,1.3
11.74522495,-0.2,0.02,-1.42,1.43
11.75523281,-0.2,0.09,-1.2,1.21
11.76575184,-0.2,0.1,-0.75,0.78
11.77574086,-0.27,-0.03,-0.27,0.38
11.7859087,-0.29,-0.3,-0.01,0.41
11.79595184,-0.11,-0.72,-0.07,0.73
11.80629873,0.05,-1.05,-0.24,1.07
11.81615591,0.05,-1.14,-0.44,1.22
11.83728695,-0.11,-1,-0.64,1.19
11.83869386,-0.22,-0.66,-0.76,1.03
11.84547281,-0.2,-0.34,-0.85,0.93
11.85590267,-0.14,-0.21,-1.05,1.07
11.86605787,-0.05,-0.28,-1.1,1.13
11.87616682,-0.3,-0.61,-0.93,1.15
11.88655996,-0.77,-0.82,-0.36,1.18
11.89668179,-1.12,-1,0.16,1.5
11.91001892,-1.29,-1.21,0.45,1.82
11.93691087,-1.19,-1.4,0.68,1.95
11.93801594,-0.99,-1.55,0.62,1.94
11.93855286,-0.92,-1.5,0.34,1.79
11.94617677,-0.93,-1.23,-0.13,1.54
11.95655298,-1.05,-0.85,-0.64,1.49
11.96743298,-1.12,-0.38,-0.75,1.4
11.97660279,-1.03,0,-0.27,1.06
11.98661089,-0.93,0,0.32,0.98
11.99685574,-0.87,-0.03,0.93,1.27
12.01041269,-0.8,0.07,1.15,1.4
12.03581095,-0.86,-0.05,0.87,1.22
12.03710699,-1.13,-0.17,0.37,1.2
12.037673,-1.43,-0.18,-0.28,1.46
12.0465827,-1.43,-0.17,-0.62,1.56
12.05679083,-1.06,-0.4,-0.8,1.38
12.06687784,-0.7,-0.68,-1.1,1.47
12.07654381,-0.44,-0.78,-1.5,1.74
12.08672667,-0.55,-0.59,-1.76,1.93
12.09821272,-1,-0.5,-1.09,1.56
12.11180687,-1.08,-0.61,-0.67,1.4
12.13652468,-0.98,-0.73,-0.32,1.26
12.13781285,-0.8,-0.54,-0.11,0.97
12.13835287,-0.59,-0.44,-0.3,0.79
12.14709282,-0.4,-0.64,-0.68,1.01
12.15718889,-0.2,-0.79,-1,1.29
12.16745281,0.03,-0.62,-1.03,1.2
12.17740178,-0.06,-0.15,-0.85,0.86
12.18752575,-0.27,0.26,-0.69,0.78
12.19771981,-0.31,0.31,-0.45,0.62
12.21252966,-0.54,0.08,-0.68,0.87
12.23646379,-0.9,0.08,-1.23,1.52
12.2376647,-1.32,0.49,-2.06,2.49
12.23819184,-2.02,1.12,-2.55,3.44
12.24743795,-2.53,1.35,-2.34,3.7
12.25765681,-2.06,0.68,-1.55,2.66
12.26805496,-1.42,0.65,-0.43,1.61
12.27774787,-1.16,0.92,0.1,1.48
12.28839684,-0.94,1.15,0.45,1.55
12.2981708,-0.27,1.24,0.59,1.39
12.31240177,0.4,0.97,0.22,1.07
12.33660388,0.42,0.69,-0.27,0.85
12.33833599,0.32,0.74,-0.55,0.97
12.33893776,0.52,0.85,-0.88,1.32
12.34781885,0.68,1.1,-0.97,1.61
12.35802484,0.68,1.24,-1.02,1.74
12.36832571,0.57,1.15,-1.28,1.81
12.37823987,0.47,1.18,-1.75,2.16
12.38892794,0.45,1.05,-2.03,2.32
12.39887094,0.34,0.66,-1.57,1.73
12.41382265,0.19,0.47,-1.2,1.3
12.43759489,0.07,0.58,-0.84,1.02
12.43901181,-0.27,0.48,-0.8,0.97
12.43957567,-0.28,0.43,-1.09,1.2
12.44839978,0.52,0.72,-2.01,2.19
12.45863295,1.44,1.04,-3.04,3.52
12.46870184,2.03,1.39,-3.24,4.06
12.4786458,2.45,1.44,-2.45,3.75
12.48901796,2.39,0.79,-1.95,3.18
12.49944592,2.04,0.1,-1.83,2.74
12.51247287,1.54,-0.42,-1.98,2.54
12.53571081,0.79,-0.85,-2.21,2.49
12.53709984,0.18,-1.27,-2.61,2.9
12.53850889,0.17,-1.57,-2.98,3.37
12.54872084,0.32,-1.8,-3.07,3.57
12.55893087,0.44,-2.33,-3.23,4
12.56892872,0.74,-2.59,-3.39,4.32
12.57945871,1.13,-2.32,-3.28,4.17
12.58984089,1.49,-1.77,-2.18,3.17
12.59959984,2.08,-1.33,-0.76,2.58
12.61300373,3.1,-1.52,-0.14,3.45
12.63561583,3.85,-2.21,0.06,4.43
12.63693285,3.79,-2.76,-0.08,4.68
12.63903666,2.95,-2.7,-0.72,4.06
12.65339088,2.33,-2.34,-1.2,3.51
12.65921974,2.27,-2.26,-1.16,3.4
12.66967082,2.77,-2.39,-0.94,3.77
12.6795938,3.75,-2.34,-0.69,4.47
12.69022894,4.62,-2.75,-0.7,5.42
12.70159769,5.21,-3.84,-0.49,6.49
12.71354079,5.19,-4.92,0.77,7.19
12.73328495,3.99,-5.73,3.8,7.94
12.73460579,1.91,-5.93,7.21,9.52
12.73990393,0.06,-5.84,10.06,11.63
12.75344682,-0.49,-6.04,11.27,12.79
12.76017094,0.15,-5.92,11.05,12.53
12.77032185,0.83,-5.35,10.21,11.55
12.78040981,1.07,-4.48,9.62,10.66
12.79059887,0.87,-3.58,9.25,9.95
12.80223465,0.45,-2.75,9.05,9.46
12.81515384,-0.18,-2.18,9.02,9.28
12.83382893,-0.8,-1.85,8.13,8.37
12.83526278,-1.19,-1.38,6.69,6.93
12.84014893,-1.5,-0.91,5.22,5.5
12.85338378,-1.64,-0.52,3.78,4.15
12.86037874,-1.59,-0.19,2.46,2.93
12.87053394,-1.54,0.19,1.48,2.14
12.88058996,-1.52,0.55,0.83,1.81
12.89101267,-1.6,0.73,0.37,1.79
12.90253496,-1.81,0.74,0.04,1.95
12.91590786,-1.99,0.73,-0.37,2.15
12.93504572,-2.07,0.72,-0.87,2.35
12.93666077,-1.93,0.75,-1.18,2.38
12.9402709,-1.72,0.84,-1.25,2.28
12.95339584,-1.31,0.87,-1.35,2.07
12.96048975,-0.75,0.88,-1.33,1.76
12.97097683,-0.04,0.84,-0.86,1.2
12.98137188,0.32,0.66,-0.4,0.83
12.99151683,0.19,0.47,-0.13,0.52
13.00144196,-0.06,0.41,0.12,0.43
13.01584673,-0.18,0.26,0.49,0.58
13.0350728,-0.23,0.03,0.77,0.8
13.03631973,-0.2,-0.13,0.77,0.8
13.04080582,-0.06,-0.2,0.82,0.84
13.05277491,0.02,-0.35,1.08,1.13
13.06111479,-0.05,-0.47,1.27,1.35
13.07140875,-0.33,-0.49,1.21,1.34
13.08153391,-0.68,-0.42,0.92,1.21
13.09214783,-0.86,-0.26,0.53,1.04
13.10204887,-0.69,-0.02,0.19,0.71
13.13541174,-0.28,0.2,-0.09,0.35
13.136971,0.07,0.4,-0.21,0.45
13.13754678,0.07,0.48,-0.14,0.5
13.14133787,-0.1,0.31,0.11,0.34
13.15324283,-0.19,0.19,0.14,0.3
13.16157293,-0.24,0.3,0.06,0.38
13.17185593,-0.2,0.38,-0.02,0.42
13.18223786,-0.22,0.29,-0.18,0.4
13.19235682,-0.4,0.16,-0.29,0.51
13.20271683,-0.7,0.12,-0.29,0.76
13.2362957,-0.96,0.21,-0.15,0.99
13.23785973,-1.04,0.3,-0.08,1.08
13.2385118,-0.94,0.32,-0.13,1
13.2418437,-0.69,0.4,-0.28,0.84
13.25293779,-0.47,0.49,-0.24,0.72
13.26220989,-0.2,0.5,-0.17,0.56
13.27235484,0.08,0.49,-0.11,0.5
13.28252268,0.11,0.38,-0.02,0.39
13.29272485,-0.2,0.02,-0.03,0.2
13.3029058,-0.73,-0.31,-0.19,0.81
13.33539987,-1.22,-0.43,-0.41,1.35
13.33672571,-1.42,-0.38,-0.6,1.58
13.33724499,-1.31,-0.37,-0.8,1.57
13.34224486,-0.95,-0.41,-0.96,1.41
13.35342884,-0.57,-0.42,-0.92,1.16
13.36250973,-0.32,-0.4,-0.74,0.9
13.37277579,-0.14,-0.39,-0.39,0.56
13.38481283,-0.04,-0.41,-0.12,0.42
13.39323568,-0.06,-0.46,-0.01,0.46
13.404037,-0.13,-0.51,-0.09,0.53
13.43947482,-0.24,-0.63,-0.27,0.72
13.44090581,-0.31,-0.67,-0.2,0.76
13.44144297,-0.13,-0.59,-0.14,0.62
13.44239688,0.21,-0.4,-0.14,0.47
13.45333385,0.43,-0.28,-0.19,0.54
13.46279097,0.5,-0.28,-0.3,0.64
13.4733057,0.42,-0.3,-0.43,0.67
13.48369384,0.21,-0.4,-0.56,0.71
13.49345183,-0.04,-0.46,-0.77,0.89
13.50373578,-0.21,-0.41,-0.98,1.08
13.53776598,-0.2,-0.3,-1.1,1.15
13.53913593,-0.03,-0.34,-0.98,1.03
13.53974867,0.1,-0.63,-0.74,0.97
13.5429759,0.1,-1.02,-0.54,1.15
13.55323577,0.02,-1.23,-0.32,1.27
13.5632658,0.13,-1.22,-0.09,1.23
13.57366586,0.39,-1.17,0,1.23
13.58397865,0.6,-1.11,-0.15,1.27
13.59389973,0.73,-0.98,-0.58,1.35
13.6042428,0.82,-0.87,-1.08,1.61
13.63641977,0.83,-0.92,-1.26,1.76
13.63798785,0.69,-1.15,-0.96,1.64
13.638587,0.37,-1.29,-0.33,1.38
13.64354086,0.07,-1.16,0.35,1.21
13.65363598,0.14,-0.85,0.96,1.28
13.6639328,0.66,-0.51,1.31,1.55
13.6741209,1.55,-0.22,1.28,2.02
13.68430567,2.3,-0.09,1.09,2.54
13.69449782,2.4,-0.18,1.02,2.61
13.70467687,1.93,-0.31,1.32,2.35
13.73688889,1.25,-0.45,1.69,2.14
13.73831367,0.63,-0.54,1.82,2
13.73883867,0.13,-0.52,1.73,1.81
13.74400377,-0.08,-0.46,1.47,1.54
13.75408387,0.01,-0.38,1.22,1.27
13.76436687,0.29,-0.33,0.97,1.06
13.7745018,0.58,-0.31,0.73,0.98
13.78499269,0.96,-0.09,0.53,1.1
13.79513979,1.4,0.15,0.64,1.54
13.80562973,1.53,0.02,0.89,1.77
13.83986568,1.24,-0.34,1.06,1.66
13.84145379,0.79,-0.5,1.19,1.51
13.84212065,0.3,-0.46,1.13,1.25
13.84445667,-0.1,-0.44,0.93,1.03
13.85467196,-0.22,-0.48,0.62,0.81
13.86474371,-0.15,-0.45,0.31,0.56
13.87496376,0.07,-0.35,0.09,0.36
13.8848958,0.35,-0.2,0.06,0.4
13.89540482,0.52,-0.1,0.1,0.53
13.90596199,0.51,-0.17,0.23,0.58
13.93939185,0.39,-0.32,0.41,0.65
13.94091272,0.16,-0.44,0.45,0.64
13.94151878,-0.13,-0.45,0.29,0.55
13.94494081,-0.41,-0.4,-0.01,0.57
13.95514774,-0.61,-0.35,-0.36,0.79
13.96538186,-0.67,-0.25,-0.59,0.92
13.97537374,-0.66,-0.12,-0.69,0.96
13.98527098,-0.66,-0.06,-0.75,1
13.99573278,-0.71,0.01,-0.79,1.06
14.00589681,-0.65,0.15,-0.72,0.98
14.03942966,-0.59,0.25,-0.6,0.87
14.04066467,-0.64,0.26,-0.6,0.91
14.04113197,-0.65,0.26,-0.76,1.03
14.04525375,-0.4,0.29,-0.88,1
14.05549192,0,0.34,-0.95,1
14.06631565,0.43,0.22,-1.03,1.13
14.07571387,0.65,-0.1,-1.03,1.22
14.08587074,0.34,-0.43,-0.74,0.92
14.09629393,-0.25,-0.64,-0.37,0.78
14.10628986,-0.79,-0.67,-0.15,1.04
14.12303185,-1.29,-0.66,-0.19,1.46
14.12665367,-1.7,-0.55,-0.41,1.83
14.15135574,-1.82,-0.36,-0.84,2.03
14.15291786,-1.48,-0.15,-1.2,1.91
14.15580082,-0.85,0,-1.23,1.49
14.1696558,-0.19,-0.03,-0.83,0.85
14.17594886,0.27,-0.2,-0.31,0.45
14.18620586,0.32,-0.26,0.2,0.45
14.19623184,0.04,-0.19,0.52,0.55
14.20692277,-0.33,-0.2,0.59,0.7
14.22125387,-0.69,-0.25,0.39,0.83
14.22697973,-0.9,-0.3,0,0.94
14.25088072,-0.89,-0.32,-0.4,1.02
14.25222397,-0.7,-0.21,-0.62,0.95
14.25635672,-0.51,-0.1,-0.72,0.88
14.26952386,-0.4,0.01,-0.77,0.86
14.27666879,-0.35,0.22,-0.7,0.81
14.28681469,-0.37,0.48,-0.52,0.79
14.29708195,-0.39,0.63,-0.33,0.81
14.30730772,-0.37,0.62,-0.26,0.76
14.322577,-0.4,0.49,-0.4,0.74
14.32727885,-0.37,0.33,-0.54,0.73
14.35156298,-0.29,0.31,-0.37,0.56
14.35309577,-0.18,0.35,0.05,0.39
14.35665369,-0.07,0.35,0.53,0.63
14.36995173,-0.04,0.37,0.91,0.98
14.37677884,-0.03,0.34,1.09,1.14
14.38712692,-0.06,0.34,1.1,1.15
14.39757299,-0.13,0.3,0.99,1.04
14.40766287,-0.12,0.26,0.79,0.84
14.4215107,-0.1,0.23,0.6,0.65
14.42769098,-0.11,0.17,0.39,0.43
14.45245981,-0.15,0.07,0.24,0.29
14.45395994,-0.28,-0.03,0.13,0.31
14.4571147,-0.45,-0.07,0.1,0.46
14.46943665,-0.58,-0.09,0.09,0.59
14.47726178,-0.66,-0.13,0.03,0.67
14.48773766,-0.69,-0.21,-0.04,0.72
14.49756479,-0.68,-0.32,-0.14,0.76
14.50788069,-0.68,-0.32,-0.2,0.77
14.52171588,-0.67,-0.26,-0.25,0.76
14.52819681,-0.69,-0.21,-0.34,0.79
14.55314493,-0.7,-0.25,-0.49,0.89
14.55488586,-0.61,-0.31,-0.63,0.93
14.55747795,-0.57,-0.46,-0.78,1.07
14.56915784,-0.62,-0.61,-0.94,1.28
14.57767868,-0.63,-0.59,-0.97,1.29
14.58821392,-0.61,-0.48,-0.94,1.21
14.5978899,-0.58,-0.45,-0.93,1.18
14.60858297,-0.48,-0.44,-0.95,1.15
14.6228199,-0.37,-0.43,-0.93,1.08
14.62848997,-0.25,-0.45,-0.94,1.07
14.65129471,-0.03,-0.45,-0.94,1.04
14.65291286,0.21,-0.43,-0.79,0.92
14.65808487,0.36,-0.44,-0.34,0.66
14.66887879,0.46,-0.53,0.22,0.73
14.67832685,0.49,-0.54,0.68,0.99
14.68868399,0.47,-0.5,0.98,1.19
14.69882679,0.49,-0.55,0.89,1.15
14.70918465,0.58,-0.59,0.48,0.95
14.7223928,0.58,-0.54,-0.09,0.79
14.72899985,0.52,-0.45,-0.56,0.88
14.75149679,0.41,-0.35,-0.8,0.96
14.75304794,0.33,-0.33,-0.82,0.94
14.75849867,0.32,-0.33,-0.64,0.78
14.76947165,0.49,-0.21,-0.29,0.6
14.77869678,0.76,-0.08,0,0.76
14.78900886,0.96,-0.09,0.17,0.97
14.80127668,1.09,-0.2,0.21,1.12
14.80935669,1.07,-0.31,0.2,1.13
14.8228898,0.87,-0.38,0.18,0.96
14.82947087,0.66,-0.31,0.17,0.74
14.85184479,0.47,-0.25,0.15,0.55
14.85330772,0.44,-0.21,0.11,0.49
14.85896182,0.57,-0.24,0.08,0.62
14.86943197,0.69,-0.28,0.08,0.74
14.8792448,0.7,-0.32,0.17,0.78
14.88965893,0.67,-0.32,0.29,0.79
14.90101981,0.63,-0.33,0.46,0.84
14.90979195,0.55,-0.3,0.63,0.88
14.92361069,0.52,-0.18,0.75,0.93
14.92979884,0.58,-0.05,0.84,1.02
14.95139599,0.61,-0.07,0.73,0.95
14.9529388,0.54,-0.1,0.56,0.78
14.95946383,0.49,-0.14,0.39,0.64
14.96948195,0.51,-0.23,0.31,0.63
14.97980165,0.5,-0.32,0.31,0.66
14.9899478,0.38,-0.3,0.35,0.59
15.00116491,0.32,-0.16,0.41,0.54
15.01025295,0.41,-0.01,0.34,0.53
15.02367377,0.54,0.16,0.24,0.61
15.03019667,0.64,0.38,0.16,0.76
15.05228782,0.73,0.49,0.1,0.88
15.05385685,0.83,0.42,0.06,0.93
15.05977678,0.85,0.3,0.09,0.9
15.06981993,0.8,0.15,0.19,0.83
15.08029079,0.63,0.03,0.33,0.71
15.09027982,0.38,-0.04,0.42,0.56
15.10113883,0.16,-0.06,0.45,0.48
15.11054587,0.03,-0.04,0.38,0.38
15.12410498,0.05,-0.05,0.22,0.23
15.13075399,0.16,-0.1,0,0.18
15.1521368,0.27,-0.11,-0.18,0.34
15.15347886,0.35,-0.11,-0.15,0.39
15.1603899,0.33,-0.06,0.05,0.33
15.17041874,0.3,0.01,0.23,0.37
15.1804018,0.3,0.01,0.34,0.45
15.19078279,0.36,-0.04,0.25,0.44
15.20129776,0.39,-0.09,0.09,0.41
15.21090579,0.42,-0.09,-0.01,0.42
15.22596884,0.41,-0.05,-0.02,0.41
15.23147297,0.39,0.02,0.02,0.39
15.25363588,0.39,0.02,0.16,0.42
15.25492668,0.39,-0.07,0.32,0.5
15.26068187,0.41,-0.21,0.46,0.65
15.27083182,0.4,-0.29,0.61,0.78
15.28098965,0.4,-0.27,0.77,0.9
15.29122972,0.45,-0.31,0.83,0.99
15.30119681,0.54,-0.32,0.78,1
15.311656,0.56,-0.29,0.6,0.87
15.32548094,0.49,-0.22,0.41,0.67
15.33175087,0.39,-0.19,0.26,0.5
15.351964,0.33,-0.18,0.18,0.41
15.35330391,0.29,-0.18,0.06,0.34
15.3611207,0.35,-0.16,-0.07,0.39
15.37129974,0.44,-0.19,-0.11,0.49
15.38150072,0.49,-0.29,-0.06,0.57
15.39166784,0.5,-0.31,0.02,0.58
15.40161371,0.45,-0.28,0.09,0.53
15.41207981,0.38,-0.22,0.14,0.46
15.4254117,0.38,-0.16,0.07,0.41
15.43215799,0.44,-0.14,-0.08,0.46
15.45264292,0.42,-0.19,-0.21,0.5
15.45400977,0.32,-0.2,-0.32,0.49
15.46157598,0.22,-0.21,-0.42,0.51
15.47179794,0.13,-0.28,-0.55,0.63
15.4820888,-0.03,-0.34,-0.6,0.69
15.49206877,-0.21,-0.35,-0.56,0.69
15.50236678,-0.38,-0.31,-0.42,0.64
15.51234674,-0.53,-0.31,-0.19,0.64
15.52254486,-0.66,-0.49,0.08,0.82
15.55161786,-0.69,-0.7,0.33,1.03
15.55307078,-0.57,-0.74,0.46,1.04
15.55358791,-0.47,-0.67,0.45,0.93
15.56222582,-0.34,-0.54,0.29,0.7
15.57227588,-0.27,-0.41,0.08,0.49
15.58351564,-0.21,-0.35,-0.02,0.4
15.59246492,-0.21,-0.34,-0.07,0.4
15.60251093,-0.3,-0.34,-0.1,0.46
15.61221075,-0.51,-0.34,-0.01,0.61
15.62251282,-0.71,-0.33,0.05,0.78
15.65225387,-0.77,-0.28,0.17,0.83
15.6537919,-0.74,-0.32,0.29,0.85
15.65446472,-0.71,-0.34,0.39,0.87
15.66272688,-0.57,-0.31,0.38,0.75
15.67286491,-0.42,-0.22,0.23,0.52
15.68322992,-0.36,-0.13,0.09,0.39
15.69327688,-0.41,-0.16,-0.12,0.45
15.70332384,-0.53,-0.19,-0.33,0.65
15.71373177,-0.7,-0.36,-0.43,0.89
15.72452378,-0.77,-0.59,-0.25,1
15.75348473,-0.84,-0.74,0.12,1.12
15.75505066,-0.87,-0.82,0.49,1.29
15.75570393,-0.9,-0.98,0.53,1.43
15.7630868,-1.14,-1.2,0.24,1.67
15.77337885,-1.56,-1.29,-0.09,2.02
15.78349495,-1.45,-0.82,-0.15,1.67
15.79335284,-1.07,-0.53,-0.22,1.21
15.80400181,-0.75,-0.71,-0.25,1.06
15.81384993,-0.57,-0.99,-0.12,1.14
15.82470989,-0.55,-1.21,0.02,1.32
15.85325289,-0.75,-1.2,0.11,1.41
15.85485387,-1.04,-1.16,-0.01,1.55
15.85552382,-1.31,-1.05,-0.28,1.7
15.86339283,-1.64,-0.89,-0.54,1.94
15.87352085,-1.96,-0.76,-0.68,2.2
15.8877387,-1.91,-0.88,-1.06,2.35
15.89792585,-1.95,-0.93,-1.11,2.42
15.90827584,-1.93,-1.07,-1.04,2.43
15.91816378,-1.86,-1.31,-0.91,2.45
15.92811966,-1.85,-1.4,-0.7,2.42
15.95359087,-1.92,-1.34,-0.32,2.36
15.95491695,-1.91,-1.34,-0.2,2.34
15.95769072,-1.93,-1.32,-0.5,2.39
15.96908879,-1.95,-1.21,-1.05,2.52
15.97815681,-1.94,-1,-1.46,2.62
15.98820591,-1.91,-1.04,-1.62,2.71
15.99832678,-1.8,-1.49,-1.29,2.66
16.00869584,-1.69,-2.12,-0.59,2.77
16.01872182,-1.77,-2.61,0.42,3.18
16.02878785,-1.85,-2.85,0.99,3.53
16.05387497,-2.05,-2.59,0.85,3.41
16.0552969,-2.26,-2.01,0.25,3.03
16.05828094,-2.09,-1.29,-0.1,2.45
16.06923985,-1.61,-0.81,-0.39,1.84
16.0785358,-1.11,-0.62,-0.62,1.41
16.0887568,-0.75,-0.78,-0.43,1.16
16.09905386,-0.38,-1.19,0.27,1.27
16.10909891,0.03,-1.46,1.6,2.16
16.11914587,0.16,-1.58,2.85,3.26
16.12939882,-0.23,-1.63,3.17,3.57
16.15224791,-0.95,-1.58,2.51,3.11
16.15374684,-1.29,-1.49,1.4,2.41
16.15856171,-1.65,-1.61,0.1,2.3
16.16938591,-1.47,-1.7,-0.11,2.25
16.17898273,-0.98,-2.03,0.59,2.33
16.18907499,-0.62,-2.26,1.66,2.87
16.20067596,-0.44,-2.11,2.7,3.45
16.20958281,-0.78,-1.79,2.99,3.57
16.21950078,-1,-1.29,2.8,3.24
16.22939777,-0.63,-0.9,2.19,2.45
16.25246286,-0.47,-0.84,1.59,1.85
16.2540369,-0.72,-1.06,1.27,1.8
16.2589438,-1.24,-1.21,1.4,2.22
16.26966381,-1.61,-1.2,1.92,2.77
16.27941895,-1.47,-1.18,2.41,3.05
16.2895627,-1.03,-1.17,2.87,3.26
16.30030394,-0.36,-1.06,3.18,3.37
16.30930996,0.15,-0.53,3.3,3.34
16.3190999,0.03,0.09,2.72,2.72
16.32905483,-0.4,0.4,1.52,1.62
16.34574175,-0.84,0.31,0.54,1.04
16.34919381,-0.99,0.28,0.05,1.03
16.35924077,-0.88,0.36,-0.09,0.95
16.36935282,-0.62,0.23,0.14,0.67
16.37920189,-0.12,0.11,0.61,0.63
16.38962579,0.55,0.39,1.62,1.75
16.39955187,1.02,0.67,2.15,2.47
16.40936184,1.13,0.82,2.38,2.75
16.41946888,0.99,1,2.31,2.7
16.42953181,0.89,1.18,1.85,2.36
16.44690371,0.6,1.1,1.4,1.87
16.44962072,0.09,0.74,0.98,1.23
16.45963478,-0.62,0.41,0.65,0.98
16.46976376,-1.17,0.23,0.76,1.41
16.47947979,-1.19,0.11,1.16,1.66
16.48985481,-0.79,0.15,1.99,2.14
16.50005865,-0.25,0.37,2.94,2.97
16.50981998,0.07,0.55,3.36,3.4
16.52000093,0.35,0.54,3.46,3.51
16.52977991,0.84,0.5,3,3.15
16.54626584,1.16,0.6,2.2,2.55
16.55000496,1.47,0.91,1.44,2.25
16.56003284,1.86,1.43,0.49,2.39
16.57017899,1.79,1.58,-0.23,2.39
16.58001685,1.08,1.28,-0.28,1.69
16.59023476,0.31,0.88,0.07,0.93
16.60026479,-0.08,0.51,0.3,0.59
16.61021471,-0.13,0.27,0.5,0.58
16.62028265,0.21,0.36,0.22,0.47
16.63029099,0.97,0.76,-0.41,1.29
16.64556479,1.72,1.32,-0.94,2.36
16.65070987,1.92,1.49,-1.49,2.85
16.66044474,1.47,1.17,-1.75,2.56
16.6707449,0.81,0.67,-1.59,1.9
16.68042994,0.1,0.12,-1.26,1.26
16.69072866,-0.48,-0.41,-0.87,1.07
16.70087576,-0.78,-0.73,-0.55,1.2
16.71055269,-0.92,-0.89,-0.46,1.36
16.7207408,-0.8,-0.96,-0.47,1.33
16.73081279,-0.37,-0.94,-0.37,1.07
16.74517775,-0.14,-1.07,-0.16,1.09
16.75105786,0,-1.12,0.1,1.12
16.7609129,0.16,-1.16,0.26,1.19
16.77111077,0.13,-1.22,0.15,1.23
16.78092194,-0.01,-1.26,-0.18,1.27
16.79135585,-0.15,-1.29,-0.52,1.39
16.80113387,-0.39,-1.33,-0.71,1.55
16.81107879,-0.44,-1.11,-0.8,1.43
16.82125092,-0.3,-0.77,-0.78,1.13
16.83132887,-0.17,-0.59,-0.52,0.8
16.8469429,0.38,-0.48,-0.16,0.63
16.85149288,0.87,-0.3,0.23,0.94
16.86127782,0.88,0.02,0.37,0.95
16.87149668,0.73,0.3,0.1,0.79
16.88235998,0.43,0.34,-0.35,0.65
16.89156389,0.3,0.29,-0.43,0.59
16.90165186,0.29,0.2,0.02,0.35
16.91149473,0.37,0.05,0.57,0.68
16.92166185,0.41,-0.28,1.17,1.27
16.94633985,0.2,-0.59,1.6,1.71
16.94689798,-0.02,-0.65,1.63,1.75
16.95187879,-0.32,-0.73,1.17,1.41
16.96173573,-0.82,-1.03,0.44,1.38
16.97202682,-1.67,-1.51,-0.3,2.27
16.98246884,-1.84,-1.66,-0.71,2.57
16.99192286,-1.67,-1.78,-0.81,2.57
17.00208569,-1.18,-1.64,-0.76,2.15
17.01199293,-0.58,-1.42,-0.61,1.65
17.02217674,-0.3,-1.22,-0.8,1.48
17.04584074,0.42,-0.63,-0.88,1.16
17.04633999,1.23,-0.03,-0.88,1.51
17.05227184,1.17,0.29,-1.04,1.59
17.06218576,0.78,0.4,-1.19,1.47
17.07239079,0.64,0.39,-1.37,1.56
17.08252478,1.14,0.8,-1.27,1.88
17.09257793,1.88,1.06,-0.98,2.37
17.10267377,1.84,0.81,-0.71,2.13
17.11265779,1.47,0.87,-0.05,1.7
17.12275577,1.12,1.03,0.52,1.6
17.14667082,0.77,1.09,0.65,1.48
17.14723182,0.68,1.21,0.57,1.5
17.15275669,0.84,1.21,0.4,1.52
17.16291571,0.52,1.13,0.25,1.26
17.17319965,-0.3,0.9,0.4,1.02
17.18307495,-0.98,0.54,0.84,1.39
17.19301081,-1.54,0.2,1.34,2.05
17.20310783,-1.46,0.24,1.86,2.37
17.21318865,-1.31,0.33,1.99,2.4
17.22325683,-1.11,0.5,1.8,2.17
17.24734592,-1.12,0.42,1.38,1.82
17.24795294,-1.6,0.1,0.97,1.87
17.25330377,-1.8,0.06,0.88,2
17.26333094,-1.3,0.26,0.9,1.6
17.27356577,-0.61,0.33,0.87,1.11
17.28350282,-0.16,0.25,1.02,1.06
17.29496193,-0.02,0.07,1.39,1.39
17.30489683,-0.06,-0.12,1.8,1.8
17.31462884,0.27,-0.11,2.19,2.2
17.32474685,0.79,-0.07,2.32,2.45
17.35699582,1.38,0.05,2.21,2.6
17.35777688,1.49,0.12,2.08,2.56
17.35832167,1.21,0.19,1.9,2.26
17.36383867,0.98,0.22,1.62,1.9
17.37411785,0.81,-0.01,1.48,1.68
17.38442588,0.91,-0.24,1.45,1.72
17.39432788,0.9,-0.31,1.3,1.61
17.40480685,0.73,-0.33,1.18,1.42
17.41473293,0.69,-0.22,0.91,1.16
17.42434692,0.96,0.17,0.41,1.05
17.45578194,0.88,0.33,0.08,0.94
17.45736265,0.46,0.37,-0.17,0.61
17.45788479,0.24,0.68,-0.59,0.93
17.46434379,0.45,1.02,-1.07,1.54
17.47445679,0.89,1.17,-1.37,2
17.48457193,1.02,0.83,-1.47,1.97
17.49473786,0.72,0.27,-1.2,1.42
17.50488687,0.64,-0.2,-0.81,1.05
17.51532984,0.37,-0.89,-0.2,0.98
17.52574682,0.54,-1.08,0.28,1.23
17.55396581,0.6,-1.34,0.53,1.56
17.55549979,0.7,-1.32,0.4,1.54
17.55619383,0.77,-1.21,0.11,1.43
17.56465888,0.89,-1.26,-0.51,1.62
17.57494783,0.82,-1.31,-1.43,2.1
17.58501482,0.5,-1.43,-2.31,2.76
17.59513569,0.15,-1.48,-2.85,3.21
17.60543084,-0.13,-1.54,-2.86,3.25
17.61575699,-0.65,-1.73,-2.24,2.9
17.6263237,-1.19,-1.83,-1.51,2.65
17.65516877,-1.54,-1.85,-1.11,2.65
17.65630078,-1.4,-1.74,-0.9,2.4
17.65682983,-1.1,-1.67,-0.88,2.18
17.66913581,-0.82,-1.5,-0.81,1.89
17.67521381,-0.7,-1.31,-0.37,1.53
17.68563986,-0.77,-1.12,0.04,1.35
17.69553566,-0.76,-0.91,0.32,1.22
17.70555878,-0.52,-0.64,0.32,0.88
17.71740985,-0.19,-0.35,0.06,0.4
17.72626281,-0.32,-0.32,-0.05,0.45
17.75438166,-0.72,-0.34,-0.04,0.79
17.75494576,-0.86,-0.22,-0.12,0.89
17.75546789,-0.69,-0.26,-0.21,0.76
17.76634789,0.06,-0.04,-0.26,0.26
17.77574682,0.61,0.12,-0.13,0.63
17.78609681,0.8,0.16,0.14,0.82
17.79599094,0.64,0.13,0.57,0.86
17.80658197,0.12,-0.02,0.99,0.99
17.8175838,-0.54,-0.27,1.31,1.44
17.82741594,-0.71,-0.6,1.7,1.93
17.85612583,-0.36,-0.79,1.85,2.04
17.85743666,0.16,-0.65,1.7,1.82
17.85797691,0.64,-0.44,1.54,1.72
17.86945868,0.76,-0.46,1.21,1.5
17.87618065,0.75,-0.39,0.64,1.06
17.8864789,0.53,-0.26,0.02,0.59
17.89638281,0.13,-0.35,-0.42,0.56
17.90704966,-0.09,-0.31,-0.86,0.91
17.91773486,-0.16,-0.16,-1.05,1.07
17.92749691,-0.03,-0.05,-1.06,1.06
17.95579982,0.32,-0.03,-1.03,1.07
17.95705986,0.78,-0.12,-0.57,0.97
17.9575119,0.78,-0.43,0.03,0.89
17.96900082,0.38,-0.71,0.71,1.07
17.97648787,-0.01,-0.83,0.94,1.25
17.98693991,-0.36,-0.56,0.44,0.79
17.99672174,-0.13,-0.03,-0.11,0.17
18.00758076,0.61,0.32,-0.51,0.85
18.01791978,1.26,0.33,-0.37,1.35
18.02797699,1.45,0.11,0.07,1.45
18.05606794,1.25,-0.05,0.45,1.32
18.05738068,0.81,-0.21,0.49,0.96
18.05785275,0.61,-0.21,0.16,0.66
18.06901383,0.95,0.28,-0.57,1.14
18.07698965,1.7,1,-1.57,2.52
18.08730268,2.87,1.77,-2.37,4.12
18.09727573,3.81,2.16,-2.23,4.91
18.10793591,3.52,1.77,-1.62,4.26
18.1181438,2.39,1.5,-1.19,3.06
18.12829399,2.1,1.71,-0.76,2.81
18.13820386,2.14,1.84,-0.35,2.84
18.14782977,2.25,1.68,-0.16,2.81
18.17015886,2.58,1.69,0.1,3.08
18.17138386,3.01,1.82,0.41,3.54
18.17740965,3.35,1.75,0.75,3.85
18.1882329,3.36,1.51,1.14,3.85
18.19768667,3.01,1.35,1.44,3.59
18.20794773,2.48,1.26,1.49,3.15
18.21805573,1.94,1.25,1.26,2.62
18.22835779,1.65,1.31,1.09,2.37
18.23850584,1.49,1.07,1.15,2.16
18.24951982,1.28,0.63,1.39,1.99
18.27219987,0.99,0.3,1.76,2.04
18.27276587,0.76,-0.01,2.22,2.34
18.27790594,0.82,-0.35,2.72,2.86
18.28814983,0.93,-0.67,3.09,3.29
18.29821181,0.96,-0.88,3.28,3.52
18.30822587,0.96,-1,3.32,3.59
18.31882882,0.78,-1.13,3.19,3.47
18.32854986,0.55,-1.13,2.82,3.08
18.33889389,0.32,-1.15,2.26,2.55
18.34894896,-0.03,-1.35,1.63,2.11
18.37040877,-0.29,-1.46,1.1,1.85
18.3716979,-0.35,-1.58,1.06,1.93
18.37816191,-0.35,-1.89,1.49,2.43
18.38843775,-0.52,-2.14,1.98,2.96
18.3997128,-0.65,-2.15,2.52,3.37
18.40867782,-0.64,-2.16,2.98,3.73
18.41926885,-0.88,-2.26,2.99,3.84
18.42897797,-1.35,-2.32,2.54,3.69
18.43938875,-1.85,-2.42,1.84,3.55
18.47088194,-2.27,-2.59,1.72,3.84
18.47222376,-2.17,-2.34,0.92,3.32
18.47274971,-2.19,-1.8,-0.18,2.84
18.478652,-2.25,-1.69,-0.21,2.82
18.48889494,-2.06,-1.71,-0.08,2.67
18.49954486,-1.75,-1.64,0.2,2.4
18.50913095,-1.2,-1.61,0.91,2.2
18.51928473,-0.7,-1.82,1.74,2.61
18.52943182,-0.45,-2.05,1.96,2.87
18.53976178,-0.47,-1.98,1.56,2.56
18.5719347,-0.86,-2.01,0.99,2.39
18.57321286,-1.11,-2.11,0.55,2.44
18.57365465,-1.2,-2.11,0.27,2.44
18.57896996,-1.07,-1.99,0.16,2.26
18.58945084,-0.66,-1.94,0.18,2.05
18.5995779,-0.24,-1.86,0.23,1.88
18.60963392,0.32,-1.74,0.35,1.8
18.61974883,0.71,-1.83,0.59,2.04
18.62984371,1.06,-1.96,0.75,2.35
18.64007187,1.38,-2.15,0.68,2.64
18.66933584,1.44,-2.43,0.29,2.83
18.67062378,1.66,-2.58,-0.07,3.06
18.67114973,2.08,-2.46,-0.47,3.25
18.67967892,1.99,-2.32,-0.87,3.17
18.68975377,1.28,-2.22,-1.16,2.81
18.70000887,0.08,-2.21,-1.27,2.55
18.71013975,-1.22,-2.05,-1.13,2.63
18.72022772,-2.06,-1.69,-0.73,2.76
18.730546,-1.95,-1.18,-0.18,2.28
18.74065781,-0.96,-0.6,0.44,1.21
18.76933765,0.52,-0.05,0.9,1.04
18.77062082,1.97,0.43,1.1,2.29
18.77114868,3.19,0.74,1.27,3.51
18.7802918,4.11,0.64,1.43,4.39
18.79026484,4.63,-0.05,1.38,4.83
18.80053878,4.69,-1.07,1.07,4.92
18.81036568,4.47,-1.84,0.73,4.88
18.82057095,4.2,-2.28,0.69,4.82
18.83081985,3.76,-2.63,0.72,4.64
18.84098887,3.15,-2.96,0.49,4.35
18.8707788,2.72,-3.19,-0.02,4.19
18.87216878,2.33,-3.35,-0.35,4.09
18.87268782,1.87,-3.49,-0.34,3.97
18.88062286,1.58,-3.41,-0.24,3.76
18.89055777,1.38,-3.41,-0.17,3.68
18.90097785,1.01,-3.67,-0.02,3.8
18.91113186,0.47,-3.88,0.28,3.91
18.92147279,-0.31,-4,0.42,4.03
18.93142891,-1.15,-3.85,0.22,4.02
18.94157982,-1.72,-3.42,-0.36,3.84
18.96953082,-1.88,-2.73,-1.03,3.47
18.97104073,-1.78,-2.09,-1.66,3.2
18.9715867,-1.63,-1.73,-2.07,3.15
18.98089981,-1.6,-1.58,-2.2,3.14
18.9911499,-1.71,-1.52,-2.23,3.19
19.00166178,-1.83,-1.26,-1.94,2.94
19.01120782,-1.82,-0.84,-1.38,2.43
19.02195287,-1.36,-0.48,-1,1.75
19.03175282,-0.5,0.06,-0.49,0.7
19.04197979,0.53,0.66,0.2,0.86
19.06996393,1.48,0.97,0.66,1.88
19.07137084,1.82,1,1.04,2.32
19.07195687,1.34,0.89,1.18,1.99
19.08142376,0.34,0.77,0.85,1.19
19.09173775,-0.77,0.78,0.39,1.16
19.1016717,-1.44,0.86,0.08,1.67
19.11176968,-1.53,1.2,0.16,1.95
19.12236381,-1.25,1.67,0.64,2.18
19.13217187,-0.63,1.87,1.34,2.38
19.14249468,-0.15,1.85,1.93,2.67
19.17033577,0.01,1.9,2.42,3.07
19.17190385,0.1,1.9,2.61,3.22
19.17250395,0.06,1.58,2.42,2.89
19.1861608,-0.04,1.07,1.92,2.19
19.1918087,-0.11,0.73,1.35,1.53
19.20227671,-0.24,0.56,0.89,1.07
19.21225595,-0.4,0.35,0.48,0.71
19.22277689,-0.49,0.04,0.14,0.51
19.23429775,-0.59,-0.32,0.03,0.67
19.24268198,-0.87,-0.6,0.03,1.05
19.27099991,-1.15,-0.8,0.11,1.4
19.27238679,-1.33,-0.94,0.21,1.64
19.27284384,-1.53,-0.94,0.24,1.81
19.28612781,-1.84,-0.83,0.15,2.02
19.29224873,-2.08,-0.61,0,2.16
19.30276084,-2.1,-0.5,-0.21,2.16
19.31272697,-1.93,-0.51,-0.51,2.06
19.32330465,-1.59,-0.42,-0.78,1.82
19.33425188,-1.24,-0.32,-0.92,1.57
19.34334278,-1.06,-0.31,-0.98,1.47
19.37047577,-1.03,-0.31,-0.96,1.44
19.37187386,-1.14,-0.22,-0.95,1.5
19.37236166,-1.33,-0.09,-0.95,1.63
19.38649893,-1.65,0.02,-0.85,1.85
19.39263296,-1.97,0.09,-0.72,2.09
19.40330172,-2.24,0.08,-0.58,2.31
19.41295385,-2.43,0.02,-0.42,2.46
19.42363286,-2.44,-0.08,-0.34,2.46
19.4344368,-2.29,-0.21,-0.33,2.32
19.44361973,-1.99,-0.2,-0.33,2.02
19.4710598,-1.77,0,-0.3,1.79
19.4724648,-1.47,0.26,-0.24,1.51
19.47301078,-1.11,0.54,-0.22,1.25
19.48663998,-0.83,0.55,-0.27,1.03
19.49324274,-0.74,0.47,-0.35,0.94
19.50410986,-0.81,0.44,-0.31,0.97
19.50948477,-0.81,0.46,-0.33,0.98
19.52055478,-0.95,0.44,-0.27,1.08
19.53021979,-1.07,0.46,-0.13,1.17
19.54028082,-1.1,0.59,0.07,1.25
19.57032394,-1.24,0.73,0.11,1.44
19.57178283,-1.35,0.76,-0.03,1.54
19.57227182,-1.35,0.66,-0.17,1.51
19.57974982,-1.31,0.56,-0.22,1.44
19.58986568,-1.27,0.43,-0.22,1.35
19.60011888,-1.23,0.3,-0.19,1.28
19.60972595,-1.02,0.2,-0.19,1.05
19.62014675,-0.8,0.12,-0.08,0.81
19.62990284,-0.86,0.03,0.08,0.86
19.64027286,-1.03,0,0.14,1.03
19.67103982,-1.18,0.04,0.08,1.18
19.67259073,-1.19,0.09,-0.05,1.19
19.67325068,-0.98,0.15,-0.21,1.01
19.68000388,-0.68,0.17,-0.1,0.7
19.69021797,-0.4,0.09,0.39,0.56
19.70048571,-0.3,-0.04,0.98,1.02
19.71047783,-0.26,-0.09,1.57,1.59
19.72096181,-0.21,-0.08,2.06,2.07
19.73178768,-0.2,0.05,2.35,2.35
19.74108791,-0.27,0.24,2.34,2.36
19.77192974,-0.5,0.45,1.96,2.07
19.77345085,-0.7,0.6,1.32,1.61
19.77399182,-0.76,0.71,0.69,1.24
19.78051996,-0.73,0.74,0.21,1.06
19.790658,-0.66,0.74,-0.13,1
19.80124688,-0.54,0.67,-0.24,0.89
19.81122684,-0.46,0.5,-0.15,0.69
19.82099771,-0.4,0.25,0.09,0.48
19.8309617,-0.33,0.01,0.46,0.56
19.84146595,-0.27,-0.24,0.68,0.77
19.86973286,-0.19,-0.38,0.76,0.87
19.87121177,-0.1,-0.34,0.79,0.86
19.87175894,-0.09,-0.27,0.71,0.76
19.88067985,-0.17,-0.28,0.49,0.58
19.89116192,-0.25,-0.37,0.16,0.47
19.90146279,-0.39,-0.47,-0.12,0.62
19.91120672,-0.5,-0.57,-0.33,0.82
19.92469382,-0.57,-0.71,-0.45,1.01
19.93493891,-0.56,-0.65,-0.5,0.99
19.94449687,-0.37,-0.56,-0.6,0.9
19.97122383,-0.14,-0.44,-0.7,0.83
19.97266865,0.09,-0.26,-0.76,0.8
19.97376299,0.18,-0.07,-0.84,0.86
19.98542786,0.21,0.09,-0.95,0.97
19.9941988,0.26,0.12,-0.99,1.03
20.00441694,0.31,0.07,-1.03,1.07
20.01434278,0.39,-0.06,-0.98,1.05
20.0251689,0.42,-0.15,-0.88,0.98
20.0352397,0.44,-0.21,-0.63,0.79
20.04510784,0.47,-0.31,-0.34,0.65
20.07125378,0.38,-0.36,-0.09,0.53
20.07250595,0.25,-0.37,0.09,0.45
20.07433987,0.06,-0.36,0.2,0.41
20.08574295,-0.04,-0.25,0.15,0.29
20.0948019,-0.06,-0.07,-0.01,0.09
20.1050477,-0.12,0.1,-0.26,0.3
20.11487293,-0.07,0.27,-0.47,0.54
20.125453,0.07,0.46,-0.38,0.6
20.13537884,0.15,0.46,0.09,0.49
20.14536977,0.11,0.38,0.55,0.67
20.17164278,-0.05,0.4,0.85,0.94
20.17294884,-0.3,0.38,0.94,1.05
20.17480898,-0.59,0.33,0.86,1.09
20.18581295,-0.85,0.31,0.62,1.09
20.1950388,-0.97,0.38,0.39,1.11
20.20558071,-0.95,0.45,0.34,1.1
20.21540594,-0.68,0.47,0.49,0.96
20.22591782,-0.35,0.48,0.53,0.79
20.2359767,-0.06,0.54,0.42,0.68
20.24573469,0.18,0.6,0.12,0.63
20.2720058,0.36,0.67,-0.01,0.76
20.27343678,0.44,0.68,0.03,0.81
20.27505088,0.33,0.68,0.13,0.76
20.28625584,0.06,0.7,0.16,0.72
20.29547882,-0.17,0.7,0.08,0.72
20.30582976,-0.31,0.65,-0.09,0.72
20.31655288,-0.37,0.54,-0.14,0.66
20.32623076,-0.35,0.48,-0.08,0.59
20.33675289,-0.21,0.51,0.05,0.55
20.34606695,-0.11,0.54,0.09,0.55
20.37190485,-0.14,0.55,-0.05,0.56
20.37324476,-0.16,0.56,-0.26,0.63
20.3757019,-0.22,0.54,-0.4,0.7
20.386096,-0.16,0.52,-0.52,0.75
20.39596486,-0.2,0.45,-0.61,0.78
20.4065218,-0.44,0.39,-0.72,0.92
20.41707468,-0.57,0.44,-0.73,1.02
20.42676783,-0.56,0.51,-0.61,0.97
20.43670988,-0.46,0.51,-0.52,0.86
20.44682288,-0.18,0.6,-0.44,0.76
20.46959591,0.17,0.65,-0.4,0.78
20.47089577,0.41,0.63,-0.39,0.84
20.47608089,0.47,0.67,-0.43,0.92
20.48655176,0.45,0.69,-0.47,0.94
20.49660873,0.4,0.67,-0.55,0.95
20.50679088,0.34,0.69,-0.59,0.96
20.51759887,0.24,0.72,-0.61,0.97
20.52706099,0.18,0.79,-0.61,1.01
20.53716993,0.18,0.82,-0.67,1.07
20.54725981,0.21,0.87,-0.75,1.16
20.57186174,0.26,0.88,-0.78,1.2
20.57316685,0.3,0.87,-0.65,1.12
20.57645178,0.32,0.87,-0.5,1.05
20.58680081,0.35,0.92,-0.31,1.03
20.59679365,0.35,0.88,-0.14,0.95
20.60702896,0.23,0.76,-0.05,0.79
20.61738682,0.05,0.73,0.05,0.73
20.62754393,0.01,0.81,0.18,0.82
20.63770986,0.14,0.8,0.25,0.84
20.64757776,0.42,0.61,0.34,0.81
20.67036772,0.8,0.4,0.48,1.01
20.67162681,1.19,0.25,0.6,1.35
20.67720079,1.49,0.24,0.63,1.63
20.68730187,1.61,0.19,0.59,1.72
20.69726896,1.59,0.07,0.54,1.68
20.70766878,1.41,-0.04,0.58,1.52
20.71762991,1.1,-0.24,0.62,1.28
20.72804499,0.73,-0.3,0.51,0.93
20.73825288,0.44,-0.42,0.24,0.65
20.74862099,0.22,-0.6,-0.06,0.64
20.7719779,0.02,-0.71,-0.27,0.75
20.77328181,-0.08,-0.78,-0.39,0.87
20.77742195,-0.16,-0.78,-0.44,0.9
20.7878418,-0.26,-0.73,-0.36,0.85
20.79781079,-0.38,-0.64,-0.07,0.74
20.80824685,-0.36,-0.65,0.26,0.78
20.8181138,-0.27,-0.81,0.54,1.01
20.82844877,-0.26,-0.98,0.7,1.23
20.83895183,-0.26,-1.04,0.78,1.32
20.84866667,-0.27,-1.07,0.86,1.39
20.87140179,-0.24,-1.12,0.89,1.45
20.87265873,-0.05,-1.23,0.94,1.54
20.87788081,0.14,-1.32,1.07,1.7
20.88827586,0.2,-1.39,1.3,1.91
20.89823985,0.1,-1.48,1.52,2.12
20.90857267,-0.11,-1.49,1.6,2.18
20.91853571,-0.39,-1.39,1.54,2.11
20.92912078,-0.64,-1.17,1.33,1.88
20.93906689,-0.75,-1.01,0.91,1.55
20.94897366,-0.78,-0.93,0.45,1.29
20.9713707,-0.69,-0.92,0.13,1.15
20.97273183,-0.46,-0.8,0.01,0.92
20.97839284,-0.02,-0.6,0.18,0.62
20.988657,0.38,-0.52,0.48,0.8
20.99862885,0.61,-0.59,0.65,1.06
21.00898266,0.58,-0.65,0.76,1.15
21.01917577,0.37,-0.63,0.84,1.11
21.02950668,0.12,-0.61,0.75,0.97
21.03972888,-0.07,-0.55,0.53,0.76
21.07006884,-0.13,-0.46,0.3,0.56
21.07140875,0.01,-0.34,0.21,0.39
21.07192588,0.4,-0.2,0.29,0.53
21.07883787,0.71,-0.14,0.38,0.81
21.08910275,0.89,-0.01,0.42,0.98
21.09985971,1.07,0.19,0.37,1.14
21.10939598,1.03,0.29,0.28,1.1
21.11960173,0.74,0.3,0.09,0.8
21.13008499,0.35,0.36,-0.13,0.51
21.13987279,0.05,0.36,-0.27,0.45
21.17049694,-0.25,0.29,-0.29,0.48
21.17171884,-0.46,0.23,-0.04,0.51
21.17233682,-0.41,0.14,0.37,0.56
21.17923689,-0.09,0,0.7,0.7
21.18956184,0.12,-0.12,0.96,0.97
21.20001173,0.13,-0.1,1.15,1.16
21.20983386,0.07,0.03,1.22,1.22
21.22010899,0.09,0.07,1.05,1.05
21.23030281,0.27,0.14,0.73,0.79
21.2405467,0.36,0.19,0.45,0.6
21.27052498,0.26,0.16,0.24,0.38
21.27177382,0.14,0.17,0.15,0.26
21.27221489,0.14,0.11,0.2,0.26
21.27981377,0.26,-0.03,0.38,0.46
21.2900877,0.42,-0.07,0.64,0.76
21.30050373,0.59,-0.05,0.84,1.02
21.31013966,0.83,-0.06,0.8,1.15
21.32044697,1.07,-0.09,0.68,1.27
21.33053064,0.98,-0.16,0.6,1.16
21.34076071,0.7,-0.13,0.48,0.85
21.37111187,0.36,-0.05,0.34,0.49
21.37233973,0,-0.1,0.23,0.25
21.37286377,-0.19,-0.26,0.21,0.38
21.37993574,-0.16,-0.35,0.21,0.43
21.39045382,0.06,-0.3,0.24,0.38
21.40055084,0.28,-0.03,0.4,0.48
21.41054296,0.39,0.35,0.43,0.67
21.42073488,0.25,0.59,0.28,0.69
21.43100286,-0.27,0.79,0.15,0.84
21.44129586,-0.82,1.01,0.08,1.3
21.46983767,-1.2,1.07,0.15,1.61
21.47114897,-1.53,0.78,0.44,1.77
21.47175264,-1.81,0.43,1.04,2.13
21.48053074,-2.08,0.27,1.68,2.68
21.49082375,-2.28,0.27,2.18,3.16
21.50092983,-2.39,0.18,2.41,3.39
21.511096,-2.34,0.11,2.5,3.42
21.52126384,-2.08,0.14,2.24,3.06
21.53160572,-1.78,0.44,1.81,2.57
21.54227877,-1.63,0.57,1.49,2.28
21.5730629,-1.65,0.52,1.42,2.23
21.5744648,-1.84,0.44,1.55,2.44
21.5749979,-2.19,0.21,1.61,2.72
21.58120084,-2.62,0.08,1.3,2.92
21.59137774,-2.94,0.04,0.88,3.06
21.60137987,-3.16,-0.15,0.6,3.21
21.61152887,-3.04,-0.41,0.57,3.12
21.62191176,-2.9,-0.69,0.6,3.04
21.6320467,-2.93,-1.03,0.45,3.13
21.64217091,-2.96,-1.44,0.07,3.29
21.67046595,-2.93,-1.85,-0.12,3.46
21.67181778,-2.67,-2.22,-0.22,3.47
21.6723299,-2.16,-2.45,-0.38,3.28
21.68157673,-1.5,-2.38,-0.74,2.9
21.69172287,-0.86,-2.24,-1.3,2.72
21.7018888,-0.37,-2.41,-1.98,3.14
21.71187973,-0.22,-2.65,-2.44,3.6
21.72215796,-0.43,-2.7,-2.49,3.69
21.73232794,-0.87,-2.53,-2.21,3.47
21.74250793,-1.12,-2.13,-1.73,2.96
21.76980686,-0.85,-2.05,-1.53,2.69
21.77109575,-0.49,-2.61,-1.67,3.13
21.77169585,-0.27,-3.03,-1.68,3.47
21.78184485,-0.55,-3.02,-1.23,3.3
21.79226589,-0.97,-2.57,-0.53,2.79
21.80222893,-0.98,-1.73,0.08,1.98
21.8123188,-0.49,-0.75,0.23,0.92
21.82312179,0.47,0.01,-0.26,0.53
21.83466077,1.51,0.32,-0.86,1.76
21.84336782,2.07,0.42,-1.1,2.38
21.87298965,2.14,0.53,-0.9,2.38
21.87408972,2.06,0.45,-0.54,2.17
21.87462568,1.84,0.11,-0.12,1.84
21.88628483,1.35,-0.27,0.37,1.42
21.89251375,0.95,-0.56,0.81,1.36
21.90285087,1,-0.77,0.88,1.53
21.9127779,1.44,-0.65,0.31,1.61
21.92307281,1.39,-0.25,-0.29,1.44
21.93492174,0.73,-0.05,-0.47,0.86
21.94360781,-0.17,-0.08,-0.4,0.44
21.97290587,-1.01,-0.1,-0.01,1.01
21.97427273,-1.42,0.14,0.68,1.58
21.97480488,-1.2,0.42,1.36,1.86
21.98630476,-0.62,0.24,1.19,1.36
21.99302483,-0.17,0.19,0.56,0.61
22.00313878,-0.05,0.84,0.24,0.87
22.01321793,-0.42,1.37,0.34,1.47
22.02343678,-0.67,1.09,0.23,1.29
22.03471565,-0.54,0.57,-0.25,0.82
22.04383278,-0.42,0.45,-0.68,0.91
22.07362366,-0.28,0.87,-0.53,1.05
22.07516193,-0.12,1.33,0.13,1.34
22.07581568,0.07,1.29,0.68,1.45
22.08589387,0.35,1.11,0.91,1.47
22.09339881,0.15,0.88,0.92,1.28
22.10357571,-0.39,0.52,0.75,0.99
22.11369181,-0.59,0.31,0.4,0.77
22.12386894,-0.28,0.41,-0.06,0.5
22.13460493,0.35,0.74,-0.51,0.96
22.14426994,0.98,1.03,-1.02,1.74
22.17309475,1.46,1.01,-1.42,2.27
22.17460775,2.04,0.76,-1.59,2.69
22.17521667,2.77,0.32,-1.47,3.15
22.18579984,3.6,0.03,-1.24,3.8
22.19391966,4.05,-0.16,-1.08,4.19
22.20427084,3.99,-0.29,-1.11,4.15
22.21421885,3.28,-0.12,-1.05,3.44
22.22477674,2.05,0.27,-0.85,2.23
22.23499179,0.95,0.37,-0.69,1.23
22.24478674,0.39,0.24,-0.66,0.8
22.27540398,0.38,0.09,-0.45,0.59
22.27594876,0.45,-0.01,-0.04,0.45
22.27646971,0.58,0.01,0.17,0.6
22.28442192,0.65,0.25,0.1,0.7
22.29425287,0.74,0.55,-0.14,0.93
22.30463171,1.04,0.76,-0.35,1.33
22.31441379,1.18,0.86,-0.44,1.52
22.3252387,1.05,0.94,-0.38,1.45
22.3350997,0.8,0.89,-0.38,1.25
22.3458128,0.65,0.73,-0.26,1.01
22.35619593,0.77,0.57,0.26,0.99
22.36588383,1.09,0.44,0.73,1.38
22.38945866,1.58,0.21,0.9,1.83
22.39088297,1.94,0.02,0.85,2.11
22.39508867,2.05,-0.01,0.65,2.15
22.404737,1.79,-0.01,0.33,1.82
22.41490698,1.41,0.01,0,1.41
22.42528081,1.09,0.05,-0.2,1.1
22.43522978,0.92,0,-0.31,0.97
22.44542599,0.89,-0.01,-0.32,0.94
22.45526981,1.06,0.06,-0.27,1.09
22.46551085,1.22,0.07,-0.27,1.25
22.48835683,1.23,0.08,-0.4,1.29
22.48967791,1.08,0.15,-0.54,1.21
22.49499369,0.97,0.2,-0.55,1.13
22.50519776,1.04,0.16,-0.51,1.16
22.51522398,1.13,0.17,-0.46,1.23
22.52571082,1.19,0.24,-0.38,1.27
22.53592277,1.33,0.32,-0.34,1.4
22.54600573,1.43,0.37,-0.37,1.52
22.55609274,1.61,0.44,-0.37,1.7
22.58838367,1.78,0.48,-0.3,1.86
22.58973384,1.9,0.42,-0.18,1.95
22.5902648,1.82,0.3,-0.04,1.84
22.59547687,1.65,0.18,0.05,1.66
22.60580587,1.42,0.1,0.07,1.42
22.61661291,1.16,0.01,-0.05,1.16
22.62612772,0.98,0.04,-0.19,0.99
22.63610172,0.96,0.1,-0.3,1.01
22.64642477,1.09,0.07,-0.24,1.11
22.65674591,1.26,-0.11,-0.07,1.26
22.68752885,1.44,-0.33,0.05,1.47
22.68887877,1.51,-0.51,0.18,1.6
22.68947482,1.49,-0.53,0.23,1.59
22.69599771,1.35,-0.49,0.23,1.45
22.70648289,1,-0.39,0.16,1.08
22.71654892,0.68,-0.21,0.03,0.71
22.72643781,0.66,-0.04,-0.2,0.69
22.73657465,0.87,0.09,-0.39,0.95
22.7467227,1.18,0.12,-0.45,1.26
22.75703883,1.56,0.14,-0.35,1.6
22.78741693,1.8,0.17,-0.18,1.81
22.78871679,1.64,0.13,-0.15,1.65
22.78925276,1.27,0.08,-0.14,1.28
22.79672885,0.87,-0.01,0.03,0.87
22.80671167,0.63,-0.09,0.18,0.66
22.81693697,0.53,-0.1,0.33,0.63
22.82694197,0.43,-0.01,0.34,0.54
22.83713484,0.44,0.06,0.23,0.5
22.84718466,0.72,0.14,0.1,0.74
22.85703897,1.02,0.22,0.04,1.04
22.88662481,1.23,0.23,0.12,1.25
22.88786697,1.37,0.23,0.36,1.43
22.8883419,1.47,0.23,0.58,1.59
22.89697075,1.69,0.14,0.74,1.85
22.90700865,2.01,-0.03,0.89,2.19
22.91716886,2.33,-0.29,0.8,2.48
22.92733383,2.56,-0.63,0.47,2.67
22.93752098,2.41,-1.02,0,2.61
22.94764876,2,-1.38,-0.41,2.46
22.95805168,1.52,-1.72,-0.68,2.39
22.98793483,1.13,-2.01,-0.82,2.44
22.98922491,0.78,-2.25,-0.72,2.48
22.98975468,0.39,-2.33,-0.49,2.41
22.99741173,0.06,-2.15,-0.39,2.18
23.00755882,0.03,-1.89,-0.36,1.92
23.01789093,0.38,-1.83,-0.5,1.93
23.02753067,0.74,-1.83,-0.72,2.1
23.0384717,0.9,-1.77,-0.85,2.15
23.04816389,0.99,-1.66,-0.88,2.12
23.05841494,0.92,-1.62,-0.86,2.05
23.08820987,0.57,-1.64,-0.77,1.89
23.08944988,0.06,-1.78,-0.45,1.83
23.08998775,-0.49,-2.07,-0.07,2.12
23.09776974,-1,-2.22,0.28,2.45
23.10812998,-1.46,-2.14,0.57,2.65
23.11811399,-1.88,-2.03,0.76,2.86
23.12809372,-2.17,-1.91,0.82,3
23.13840294,-2.38,-1.8,0.81,3.09
23.14872599,-2.61,-1.66,0.69,3.16
23.15885377,-2.83,-1.57,0.59,3.28
23.18740678,-3,-1.49,0.73,3.42
23.18860483,-3.04,-1.34,0.97,3.46
23.18911171,-2.91,-1.19,1.06,3.31
23.19824266,-2.73,-1.18,1.03,3.14
23.20834184,-2.66,-1.03,0.92,2.99
23.2188139,-2.64,-0.75,0.74,2.84
23.22851372,-2.54,-0.53,0.51,2.64
23.23925972,-2.2,-0.36,0.48,2.28
23.24911165,-1.77,-0.18,0.86,1.97
23.25920177,-1.5,-0.09,1.34,2.01
23.2881217,-1.3,-0.05,1.56,2.03
23.28942084,-1.06,0,1.48,1.82
23.28993177,-0.91,0.2,1.31,1.6
23.29871082,-0.77,0.55,1.19,1.52
23.30887079,-0.47,0.87,1.29,1.62
23.31897187,-0.03,1.02,1.49,1.8
23.32894993,0.37,0.88,1.68,1.93
23.3397727,0.65,0.62,1.9,2.1
23.34962082,0.58,0.35,2.08,2.18
23.3596468,0.2,0.15,2.09,2.1
23.3880918,-0.19,-0.1,1.82,1.83
23.38936472,-0.47,-0.3,1.37,1.47
23.38988495,-0.63,-0.44,0.98,1.24
23.40308666,-0.63,-0.63,0.81,1.2
23.40917277,-0.66,-0.68,0.84,1.26
23.41970396,-0.64,-0.53,0.92,1.23
23.42965794,-0.56,-0.52,1.04,1.29
23.44028878,-0.39,-0.77,1.07,1.37
23.45168972,-0.37,-0.93,1.05,1.45
23.45986271,-0.55,-0.84,1.05,1.45
23.48842192,-0.96,-0.63,0.96,1.49
23.48975682,-1.39,-0.36,0.76,1.62
23.49029183,-1.72,-0.16,0.47,1.79
23.5044899,-1.96,-0.11,0.24,1.97
23.50685072,-1.94,-0.05,0.2,1.95
23.51693296,-2,-0.1,0.22,2.01
23.52761698,-1.92,-0.28,0.6,2.03
23.53743887,-1.8,-0.43,1.27,2.24
23.54768586,-1.71,-0.42,1.95,2.62
23.55742598,-1.47,-0.37,2.31,2.76
23.58831692,-1.02,-0.23,2.24,2.47
23.58981466,-0.61,0.06,1.79,1.89
23.59035683,-0.33,0.34,1.21,1.29
23.59726381,-0.08,0.61,0.71,0.93
23.60742283,0.12,0.87,0.35,0.94
23.61752677,0.05,0.91,0.16,0.92
23.62767172,-0.2,0.86,0.1,0.88
23.63766885,-0.45,0.76,0.11,0.89
23.64796591,-0.6,0.57,0.06,0.82
23.65836573,-0.56,0.41,0.05,0.69
23.68548584,-0.38,0.43,0.18,0.6
23.68683195,-0.28,0.58,0.28,0.7
23.68739176,-0.26,0.63,0.12,0.69
23.69803786,-0.28,0.6,-0.16,0.68
23.70806789,-0.35,0.6,-0.29,0.75
23.7182169,-0.27,0.61,-0.08,0.67
23.72830486,0.09,0.6,0.41,0.73
23.73870277,0.5,0.71,1.05,1.36
23.74870777,0.62,0.87,1.57,1.89
23.7591908,0.5,0.93,1.75,2.04
23.78725672,0.36,0.86,1.58,1.83
23.7885437,0.06,0.7,1.19,1.38
23.78916597,-0.4,0.6,0.88,1.13
23.79815984,-0.79,0.6,0.6,1.15
23.80839276,-0.89,0.56,0.41,1.12
23.81850767,-0.93,0.35,0.3,1.03
23.82879877,-0.99,0.14,0.28,1.03
23.83906078,-1,0.06,0.43,1.09
23.84916377,-0.93,0.13,0.68,1.15
23.85916567,-0.9,0.25,0.7,1.16
23.88688993,-0.65,0.32,0.45,0.85
23.8881979,-0.13,0.24,0.22,0.35
23.89121199,0.1,0.13,-0.37,0.4
23.90272784,0.06,0.07,-0.61,0.61
23.91141891,-0.16,0.02,-0.8,0.81
23.92194486,-0.21,0.01,-0.89,0.91
23.9315567,-0.21,-0.1,-0.94,0.96
23.94219875,-0.06,-0.36,-0.94,1
23.95239377,0.22,-0.57,-0.8,1
23.96282673,0.36,-0.68,-0.57,0.95
23.99112892,0.42,-0.71,-0.4,0.91
23.99177599,0.51,-0.73,-0.33,0.94
23.99229097,0.65,-0.82,-0.32,1.09
24.00212193,0.82,-1.02,-0.21,1.32
24.01192784,0.79,-1.27,0,1.49
24.02220178,0.65,-1.48,0.19,1.62
24.03227997,0.63,-1.63,0.28,1.76
24.04273176,0.74,-1.71,0.3,1.88
24.05286598,0.83,-1.61,0.31,1.83
24.06326771,0.83,-1.41,0.28,1.65
24.08832884,0.83,-1.25,0.11,1.5
24.08952999,0.93,-1.1,-0.13,1.44
24.09202886,1.16,-1.05,-0.4,1.61
24.10328197,1.13,-1.14,-0.67,1.73
24.11236978,0.84,-1.15,-0.81,1.63
24.12282681,0.39,-0.98,-0.82,1.33
24.13390183,-0.03,-0.8,-0.85,1.16
24.14327192,-0.24,-0.86,-1,1.34
24.15320873,-0.2,-1.03,-1.16,1.56
24.16291571,-0.04,-1.03,-1.27,1.63
24.18941379,0.18,-0.89,-1.29,1.57
24.1906929,0.47,-0.76,-1.14,1.44
24.19243574,0.74,-0.82,-0.92,1.43
24.20338178,0.86,-0.93,-0.62,1.41
24.21274185,0.77,-0.97,-0.2,1.25
24.22313499,0.62,-0.94,0.23,1.14
24.23402786,0.52,-0.89,0.52,1.15
24.2439189,0.47,-0.86,0.58,1.13
24.25367284,0.42,-0.75,0.54,1.01
24.26412296,0.49,-0.48,0.47,0.83
24.28878784,0.52,-0.18,0.31,0.63
24.28999186,0.51,0.07,0.17,0.54
24.29289985,0.56,0.28,0.16,0.64
24.30379295,0.55,0.49,0.19,0.76
24.31314588,0.53,0.58,0.15,0.79
24.32359982,0.52,0.61,0.03,0.8
24.33389378,0.47,0.61,-0.15,0.78
24.34394789,0.31,0.54,-0.29,0.68
24.35466886,-0.05,0.52,-0.46,0.69
24.36458874,-0.41,0.54,-0.65,0.93
24.38909984,-0.62,0.59,-0.8,1.17
24.39037275,-0.64,0.67,-0.85,1.25
24.39332676,-0.53,0.7,-0.77,1.16
24.40383196,-0.37,0.66,-0.65,0.99
24.41354465,-0.25,0.66,-0.46,0.84
24.42409778,-0.17,0.69,-0.1,0.71
24.43407774,-0.02,0.66,0.28,0.71
24.44445467,0.18,0.62,0.58,0.86
24.45455265,0.34,0.59,0.83,1.07
24.46505594,0.32,0.52,0.99,1.16
24.48781967,0.26,0.5,1.09,1.22
24.48911667,0.13,0.49,1.13,1.23
24.49383068,-0.11,0.42,0.96,1.05
24.50456476,-0.3,0.44,0.68,0.86
24.51399469,-0.35,0.39,0.3,0.6
24.5245018,-0.34,0.35,0.05,0.49
24.53453398,-0.37,0.41,0.01,0.55
24.54494476,-0.48,0.42,0.05,0.63
24.55514765,-0.59,0.38,0.09,0.7
24.5646987,-0.7,0.34,0.09,0.78
24.5894599,-0.61,0.24,0.22,0.69
24.59075069,-0.48,0.08,0.49,0.69
24.59426689,-0.49,0,0.54,0.72
24.604527,-0.52,0.08,0.37,0.64
24.61439276,-0.52,0.19,0.07,0.55
24.6249609,-0.43,0.31,-0.28,0.59
24.63495493,-0.31,0.46,-0.5,0.74
24.64520884,-0.1,0.48,-0.58,0.75
24.65541482,0.23,0.44,-0.4,0.63
24.66516685,0.54,0.33,-0.06,0.63
24.68785572,0.75,0.08,0.35,0.83
24.68935299,1.01,-0.05,0.82,1.3
24.69500875,1.4,-0.16,1.17,1.83
24.7050519,1.75,-0.2,1.2,2.13
24.71485472,1.87,-0.22,0.98,2.12
24.7253418,1.62,-0.26,0.61,1.75
24.73534775,1.11,-0.21,0.33,1.17
24.74564075,0.59,-0.19,0.14,0.63
24.75578785,0.21,-0.3,-0.14,0.39
24.76588774,-0.1,-0.43,-0.44,0.62
24.78654671,-0.46,-0.48,-0.68,0.95
24.7878499,-0.83,-0.49,-0.77,1.23
24.7951417,-1.11,-0.46,-0.81,1.44
24.80550575,-1.3,-0.4,-0.72,1.53
24.81521082,-1.32,-0.4,-0.43,1.44
24.82574582,-1.22,-0.54,0.03,1.33
24.83587694,-1.15,-0.8,0.51,1.49
24.84606695,-1.18,-0.9,0.88,1.72
24.85685396,-1.21,-0.77,1.15,1.83
24.8663497,-1.03,-0.51,1.11,1.59
24.88877773,-0.57,-0.33,0.86,1.08
24.8900547,-0.08,-0.28,0.78,0.83
24.89549589,0.34,-0.28,0.96,1.05
24.90593767,0.73,-0.44,1.33,1.57
24.91581392,1.08,-0.7,1.71,2.14
24.92616272,1.45,-1.01,1.85,2.55
24.93626595,1.73,-1.33,1.71,2.77
24.94641781,1.95,-1.52,1.17,2.73
24.95691299,1.82,-1.53,0.48,2.42
24.98627877,1.19,-1.54,-0.14,1.95
24.98755383,0.47,-1.63,-0.69,1.83
24.98808193,0.07,-1.77,-1.24,2.16
24.99594688,-0.22,-1.78,-1.51,2.34
25.00654984,-0.3,-1.51,-1.21,1.95
25.01752377,0.11,-1.13,-0.62,1.29
25.02665472,1.19,-0.54,-0.33,1.34
25.03671265,2.32,0.17,-0.31,2.34
25.04717684,2.84,0.6,-0.46,2.93
25.05723667,2.5,0.82,-0.58,2.69
25.08677387,1.75,0.75,-0.68,2.02
25.08803368,0.78,0.46,-0.76,1.18
25.08856487,-0.23,0.25,-0.68,0.76
25.09673786,-1.04,0.15,-0.54,1.18
25.10672379,-1.39,0.18,-0.5,1.48
25.1169219,-1.26,0.41,-0.42,1.39
25.12691975,-0.83,0.66,-0.42,1.14
25.13759279,-0.79,0.81,-0.27,1.16
25.14733267,-0.9,0.9,0.11,1.27
25.15811086,-1.07,0.89,0.62,1.52
25.18779087,-1.47,0.69,0.93,1.87
25.18905067,-1.8,0.48,0.91,2.07
25.18955994,-2.07,0.24,0.59,2.16
25.19703078,-2.36,0.15,0.41,2.4
25.20742369,-2.65,0.34,0.44,2.7
25.21746492,-3.18,0.67,0.57,3.29
25.22746181,-3.69,0.92,0.64,3.85
25.23763895,-4.15,0.98,0.51,4.29
25.24789572,-4.33,0.87,0.34,4.42
25.25802994,-4.07,0.62,0.18,4.12
25.28682566,-3.37,0.28,0.1,3.38
25.28822279,-2.29,-0.02,0.1,2.29
25.28878784,-1.1,-0.19,0.23,1.13
25.2976079,-0.29,-0.19,0.67,0.75
25.30771184,-0.18,-0.1,1.26,1.27
25.317904,-0.67,-0.03,1.69,1.81
25.32793093,-1.28,-0.08,1.62,2.06
25.33836174,-1.59,-0.56,1.11,2.01
25.3481338,-1.46,-1.16,0.53,1.93
25.35935283,-1.06,-1.43,0.13,1.78
25.3890357,-0.75,-1.37,-0.15,1.56
25.39041996,-0.56,-1.18,-0.3,1.34
25.39114189,-0.39,-0.82,-0.12,0.91
25.39789081,-0.14,-0.37,0.2,0.44
25.40851593,0.47,-0.09,0.23,0.53
25.41821194,1.1,-0.17,-0.33,1.16
25.42846966,1.22,-0.41,-1.21,1.76
25.43846798,0.83,-0.63,-1.98,2.23
25.44865799,0.12,-0.59,-2.08,2.16
25.45908976,-0.46,-0.55,-1.34,1.51
25.48619795,-0.48,-0.61,-0.21,0.8
25.48758984,-0.06,-0.65,1.07,1.25
25.4880898,0.57,-0.85,1.87,2.13
25.4985218,1.01,-1.17,1.96,2.49
25.50860691,1.02,-1.26,1.48,2.19
25.51879883,0.68,-1.06,0.69,1.43
25.5287919,0.18,-0.68,-0.01,0.7
25.53904772,-0.3,-0.39,-0.44,0.66
25.54913688,-0.45,-0.26,-0.71,0.87
25.559443,-0.45,0,-0.48,0.65
25.58892679,-0.35,0.18,0.14,0.41
25.59028292,-0.11,0.27,0.64,0.7
25.59077692,-0.07,0.42,0.93,1.02
25.5987618,-0.09,0.51,0.87,1.01
25.60907078,-0.03,0.4,0.52,0.65
25.61914277,0.01,0.16,0.1,0.18
25.62924194,0.11,0.02,-0.23,0.25
25.63913083,0.28,0.02,-0.23,0.36
25.64958668,0.38,0,0.01,0.38
25.65987682,0.4,-0.22,0.26,0.52
25.68947697,0.32,-0.51,0.39,0.71
25.69088793,0.1,-0.72,0.49,0.87
25.69144487,-0.06,-0.85,0.65,1.07
25.69907665,-0.02,-1.12,0.94,1.46
25.70946169,0.12,-1.32,1.28,1.84
25.71944785,0.4,-1.44,1.58,2.17
25.72961283,0.53,-1.48,1.76,2.35
25.73980665,0.45,-1.29,1.88,2.32
25.75157595,0.37,-0.95,1.88,2.13
25.76057673,0.49,-0.73,1.72,1.93
25.78706479,0.76,-0.78,1.45,1.81
25.78867674,1.01,-0.8,1.22,1.77
25.78948498,1.2,-0.79,0.95,1.72
25.80337286,1.17,-0.86,0.73,1.62
25.80987382,0.81,-0.75,0.63,1.27
25.82018375,0.35,-0.39,0.52,0.73
25.83000779,0.21,-0.14,0.28,0.37
25.84073782,0.49,-0.1,0.04,0.5
25.85194778,0.9,-0.16,-0.14,0.92
25.86079168,1.32,-0.19,-0.28,1.36
25.88909984,1.48,-0.16,-0.34,1.52
25.89048672,1.36,-0.23,-0.42,1.44
25.89099383,1,-0.35,-0.56,1.19
25.9035418,0.46,-0.35,-0.68,0.89
25.91025782,-0.15,-0.28,-0.78,0.84
25.92025471,-0.69,-0.19,-0.84,1.1
25.93036699,-1.03,-0.19,-0.9,1.38
25.94106388,-1.13,-0.2,-0.91,1.46
25.95180082,-0.93,-0.19,-0.87,1.28
25.9610467,-0.71,-0.17,-0.79,1.07
25.98991299,-0.55,-0.12,-0.56,0.79
25.99126482,-0.34,0,-0.44,0.55
25.9918108,-0.04,0.18,-0.43,0.46
26.00311899,0.46,0.39,-0.52,0.79
26.01073384,1.1,0.36,-0.67,1.33
26.0208559,1.51,0.45,-0.68,1.71
26.03079677,1.27,0.72,-0.34,1.49
26.04097366,0.57,1.08,0.18,1.23
26.05188584,0.16,1.26,0.47,1.35
26.06132483,0.06,1.09,0.25,1.11
26.091115,0.17,0.9,-0.13,0.92
26.09168291,0.28,0.88,-0.29,0.96
26.09220791,0.27,0.85,-0.1,0.89
26.10091972,0.16,0.79,0.37,0.88
26.11105585,-0.09,0.64,0.82,1.04
26.12149787,-0.6,0.3,1.06,1.25
26.13125467,-1.15,-0.05,1.01,1.53
26.14198875,-1.57,-0.35,0.72,1.76
26.1521678,-1.79,-0.66,0.33,1.93
26.162148,-1.97,-0.77,0.11,2.11
26.17277193,-2.28,-0.83,0.01,2.42
26.18201876,-2.48,-1.11,0.15,2.72
26.20379972,-2.71,-1.46,0.37,3.1
26.20506883,-3.12,-1.58,0.59,3.54
26.21174574,-3.31,-1.3,0.77,3.63
26.22172689,-2.83,-0.85,0.84,3.07
26.23147869,-1.7,-0.2,0.8,1.88
26.24203873,0.09,2.28,-0.47,2.32
26.25212884,1.99,-0.06,-0.19,1.99
26.26222587,2.89,-0.2,1.86,3.44
26.27259588,2.19,1.14,2.23,3.32
26.28258896,1.3,1.55,1.8,2.7
26.30505586,0.6,1.45,1.85,2.42
26.30635285,-0.06,1.43,1.61,2.15
26.31187987,-0.63,1.35,0.93,1.75
26.3220377,-1.08,1,0.33,1.5
26.33199883,-1.29,0.63,-0.08,1.43
26.34238482,-1.18,0.5,-0.13,1.28
26.35251474,-0.89,0.44,-0.14,1
26.36267185,-0.66,0.26,-0.04,0.71
26.37296391,-0.56,0.21,0.21,0.63
26.38316774,-0.7,0.48,0.42,0.94
26.40484977,-0.73,0.69,0.27,1.04
26.40624094,-0.43,0.62,-0.3,0.81
26.41238594,0.15,0.42,-0.87,0.97
26.42246199,0.64,0.24,-1.26,1.43
26.43257475,0.75,0.05,-1.48,1.65
26.44313669,0.37,-0.1,-1.44,1.49
26.45298576,-0.36,-0.22,-1.1,1.17
26.46312284,-0.99,-0.55,-0.65,1.3
26.47296977,-1.47,-1.08,-0.37,1.86
26.50377584,-1.62,-1.67,-0.31,2.34
26.50513482,-1.49,-2.27,-0.48,2.75
26.50563478,-1.39,-2.65,-0.84,3.1
26.51294184,-1.22,-2.51,-1.26,3.06
26.52310467,-0.9,-2.15,-1.63,2.84
26.53355694,-0.59,-1.98,-1.98,2.86
26.54324079,-0.26,-1.82,-2.25,2.9
26.55341983,-0.15,-1.49,-2.18,2.64
26.5636518,-0.23,-1.32,-1.91,2.33
26.57335997,-0.28,-1.5,-1.8,2.35
26.60474777,-0.36,-1.86,-1.9,2.68
26.60595179,-0.59,-2.06,-1.88,2.85
26.60645676,-0.88,-2.02,-1.42,2.62
26.61334682,-1.01,-1.87,-0.7,2.23
26.62377882,-1.19,-1.65,0.06,2.03
26.63359499,-1.36,-1.68,0.59,2.24
26.64348793,-1.54,-2.03,0.42,2.58
26.65379786,-1.75,-2.16,-0.14,2.78
26.66364288,-1.85,-1.92,-0.71,2.75
26.67388177,-1.92,-1.5,-1.11,2.67
26.70572877,-2.02,-1.39,-1.23,2.74
26.70697975,-2.02,-1.5,-1.03,2.71
26.70748377,-1.96,-1.43,-0.61,2.5
26.71342373,-2.06,-1.15,-0.33,2.38
26.7238059,-2.1,-0.82,-0.37,2.28
26.73382092,-1.82,-0.64,-0.64,2.03
26.743958,-1.34,-0.53,-0.91,1.7
26.75427675,-1.13,-0.48,-0.6,1.36
26.76401782,-0.79,-0.52,0.25,0.97
26.77476692,-0.39,-0.66,1.16,1.39
26.8048768,-0.29,-0.82,1.9,2.08
26.80614567,-0.21,-0.72,2.44,2.55
26.80668068,-0.05,-0.33,2.94,2.95
26.81416082,0.31,-0.07,3.31,3.32
26.8243227,0.8,-0.08,3.63,3.71
26.83435678,1.29,-0.16,3.8,4.01
26.84459186,1.89,-0.17,3.87,4.31
26.8547349,2.51,-0.13,3.81,4.56
26.86487579,3.08,-0.05,3.67,4.79
26.87522793,3.33,-0.02,3.35,4.72
26.903687,3.41,0.03,2.82,4.42
26.90500379,3.57,0.05,2.41,4.3
26.90564871,3.55,-0.12,2.27,4.21
26.9146409,3.26,-0.47,2.25,3.98
26.92469692,3.06,-0.84,2.2,3.86
26.93493271,2.9,-0.89,2.07,3.67
26.9468379,2.92,-0.61,1.9,3.53
26.95514774,3.16,-0.44,1.79,3.65
26.96525669,3.44,-0.37,2.02,4
26.97578979,3.45,-0.42,2.6,4.34
27.00379086,3.33,-0.7,3.03,4.55
27.00504398,3.14,-0.94,3.03,4.46
27.00558877,2.93,-0.95,2.55,3.99
27.01506686,2.57,-0.7,2.16,3.42
27.02545071,2.07,-0.52,2.14,3.02
27.03543091,1.93,0.25,2.63,3.27
27.04536676,3.32,1.59,2.7,4.56
27.05563283,5.65,2.39,1.36,6.28
27.06580687,7.32,3.31,-0.36,8.04
27.0761199,7.57,3.36,-1.32,8.38
27.10275984,6.98,2.67,-1.83,7.69
27.10412884,5.73,2.09,-2.41,6.55
27.10509491,3.46,1.33,-2.7,4.58
27.11544991,0.49,0.51,-2.39,2.49
27.12561488,-2.26,-0.07,-2.07,3.06
27.1358099,-3.95,-0.52,-1.92,4.42
27.14587498,-4.63,-1.04,-1.92,5.11
27.15605378,-4.35,-1.48,-1.76,4.92
27.1683917,-3.02,-1.56,-1.55,3.73
27.17649484,-1.12,-1.12,-1.08,1.91
27.2039988,0.53,-0.53,-0.46,0.87
27.20539379,1.79,0.13,0.04,1.79
27.20606565,2.38,0.83,0.09,2.52
27.22023582,2.28,1.19,-0.13,2.57
27.22601986,1.78,1.06,-0.31,2.09
27.23617387,1.31,0.69,-0.21,1.49
27.24627876,1.06,0.07,-0.06,1.06
27.2564888,1.19,-0.54,0.4,1.36
27.2682538,1.35,-0.89,1.08,1.94
27.27708483,1.29,-0.99,1.44,2.17
27.3048718,0.99,-0.76,1.29,1.79
27.30635285,0.57,-0.52,0.61,0.98
27.30689096,0.14,-0.35,0.02,0.37
27.32035398,-0.31,-0.19,-0.34,0.49
27.32636595,-0.46,-0.11,-0.89,1
27.33700681,-0.43,-0.15,-1.26,1.33
27.346766,-0.12,-0.17,-1.22,1.23
27.35738373,0.71,0.05,-0.86,1.11
27.36829782,1.36,0.44,-0.63,1.56
27.3774178,1.39,0.69,-0.77,1.73
27.40659189,0.84,0.87,-1.26,1.74
27.40795684,0.23,0.69,-1.58,1.73
27.40844584,-0.35,0.32,-1.42,1.49
27.42007184,-0.75,0.06,-1.01,1.25
27.42711067,-0.81,-0.04,-0.66,1.04
27.43716979,-0.78,-0.07,-0.3,0.83
27.44734097,-0.88,0.1,0.01,0.88
27.45798397,-1.12,0.33,-0.03,1.16
27.46827388,-1.19,0.37,-0.31,1.28
27.47795081,-1.26,0.4,-0.57,1.43
27.5048027,-1.26,0.48,-0.85,1.59
27.50605488,-1.02,0.54,-1.07,1.57
27.50735569,-0.62,0.66,-1.03,1.37
27.51429081,-0.62,0.67,-1.03,1.37
27.52472496,-0.48,0.7,-0.73,1.11
27.53489184,-0.56,0.57,-0.38,0.88
27.54508066,-0.69,0.3,-0.09,0.75
27.55507898,-0.84,0.14,0.24,0.88
27.56657267,-0.89,0.05,0.36,0.96
27.57529187,-0.71,0,0.2,0.73
27.60551167,-0.47,0.09,0.05,0.48
27.60677767,-0.29,0.15,-0.05,0.33
27.60731792,-0.06,0.14,-0.21,0.25
27.61486292,0.1,0.24,-0.36,0.44
27.62514973,0.17,0.27,-0.33,0.45
27.63522077,0.05,0.2,-0.1,0.22
27.64538193,-0.16,0.23,0.08,0.29
27.65553093,-0.19,0.26,0.07,0.32
27.66570878,-0.11,0.26,-0.06,0.28
27.67613888,-0.04,0.33,-0.23,0.4
27.7055738,-0.08,0.32,-0.31,0.45
27.70682478,-0.2,0.29,-0.34,0.48
27.70734382,-0.41,0.31,-0.49,0.71
27.71543264,-0.7,0.26,-0.68,1
27.72555399,-0.95,0.14,-0.74,1.21
27.73575497,-0.97,0.04,-0.65,1.16
27.74583578,-0.81,-0.01,-0.39,0.89
27.75652885,-0.54,0.03,-0.12,0.55
27.76829982,-0.12,0.03,-0.02,0.12
27.77640295,0.17,0.02,-0.02,0.17
27.80458069,0.31,0.13,-0.02,0.33
27.80587578,0.08,0.14,-0.09,0.18
27.80642486,-0.18,0.17,-0.14,0.28
27.81979465,-0.28,0.19,-0.13,0.36
27.82624578,-0.33,0.15,-0.02,0.36
27.83639979,-0.3,0.24,0.13,0.4
27.8465457,-0.18,0.34,0.19,0.42
27.85695171,-0.06,0.38,0.05,0.38
27.86851978,0.02,0.45,-0.22,0.5
27.87678981,0.27,0.57,-0.54,0.83
27.90682983,0.67,0.66,-0.61,1.12
27.90811276,1.08,0.85,-0.57,1.48
27.90864897,1.42,0.88,-0.54,1.75
27.91984797,1.58,0.67,-0.24,1.73
27.92769575,1.4,0.41,0.44,1.52
27.93790984,0.82,0.11,1.09,1.36
27.9478569,0.05,-0.2,1.27,1.28
27.95854688,-0.34,-0.33,1.06,1.16
27.96901894,-0.7,-0.34,0.86,1.15
27.97844696,-1.06,-0.38,0.75,1.35
28.00549388,-1.01,-0.51,0.68,1.32
28.00679088,-0.8,-0.56,0.56,1.12
28.00773287,-0.77,-0.53,0.41,1.02
28.01977277,-0.87,-0.43,0.32,1.02
28.02803373,-0.99,-0.28,0.19,1.04
28.03825378,-0.83,-0.08,0.01,0.83
28.04827881,-0.65,0.1,-0.17,0.67
28.05872869,-0.34,0.14,-0.07,0.37
28.06926775,0.47,0.07,-0.01,0.47
28.07897782,1.2,0.01,0.11,1.2
28.10488272,1.3,-0.04,0.09,1.3
28.10618877,1.09,-0.06,0.11,1.09
28.1083827,0.66,-0.03,0.21,0.69
28.11962581,0.31,-0.01,0.07,0.31
28.1285367,0.35,0.02,0.02,0.35
28.13900685,0.75,0.06,0.08,0.75
28.14879274,1.28,0.13,0.18,1.29
28.1594367,1.71,0.14,0.36,1.75
28.16945076,1.88,0.04,0.43,1.92
28.17980886,1.79,-0.03,0.35,1.82
28.20623279,1.5,0,0.22,1.51
28.20758486,1.17,-0.09,0.27,1.2
28.20864296,0.87,-0.24,0.41,0.99
28.21991277,0.63,-0.44,0.55,0.94
28.2290318,0.38,-0.53,0.49,0.81
28.23943567,0.2,-0.48,0.18,0.55
28.24939585,0.14,-0.43,-0.17,0.48
28.25939178,0.06,-0.3,-0.35,0.46
28.27006292,-0.13,-0.23,-0.39,0.47
28.27985978,-0.43,-0.31,-0.25,0.58
28.30581999,-0.64,-0.44,-0.05,0.77
28.30711794,-0.67,-0.53,0.08,0.85
28.30916691,-0.59,-0.62,0.14,0.86
28.32047892,-0.53,-0.68,0.25,0.89
28.32946396,-0.45,-0.69,0.29,0.87
28.34010696,-0.46,-0.55,0.1,0.72
28.3508358,-0.59,-0.37,-0.32,0.76
28.36059999,-0.57,-0.22,-0.75,0.96
28.37053394,-0.32,-0.1,-0.93,0.98
28.38042593,0.04,-0.15,-1,1.01
28.4057169,0.24,-0.17,-0.99,1.03
28.40698195,0.25,-0.21,-0.77,0.83
28.40964699,0.19,-0.3,-0.33,0.48
28.4203608,0.05,-0.3,-0.13,0.33
28.43001699,-0.02,-0.26,-0.11,0.28
28.44020677,-0.12,-0.25,-0.08,0.28
28.45042467,-0.18,-0.19,-0.14,0.29
28.46065784,-0.39,-0.11,-0.45,0.6
28.4709568,-0.58,-0.04,-0.82,1
28.48065567,-0.63,0,-0.98,1.16
28.50387096,-0.7,0.03,-1.13,1.32
28.50523686,-0.81,0.04,-1.37,1.59
28.51021767,-0.89,-0.02,-1.59,1.82
28.52026486,-0.83,-0.1,-1.63,1.83
28.53044796,-0.61,-0.16,-1.4,1.53
28.54063678,-0.7,-0.15,-0.84,1.1
28.55088282,-0.75,-0.24,-0.12,0.79
28.56111479,-0.76,-0.41,0.63,1.06
28.5712719,-0.81,-0.6,0.94,1.37
28.58118081,-0.62,-0.72,1.13,1.47
28.6046598,-0.52,-0.57,1.07,1.31
28.60597277,-0.63,-0.45,0.75,1.07
28.61055565,-0.92,-0.36,0.56,1.13
28.62074685,-1.05,-0.2,0.54,1.19
28.63101387,-0.79,-0.17,0.82,1.15
28.64120197,-0.43,-0.06,1.3,1.37
28.65117693,-0.03,0.03,1.8,1.8
28.66160583,0.09,0.07,2.13,2.13
28.67153788,-0.23,0.07,2.17,2.18
28.68198299,-0.77,0,1.88,2.03
28.70707679,-1.12,0.13,1.35,1.75
28.70854092,-1.2,0.31,0.64,1.39
28.71088886,-0.96,0.4,0.09,1.04
28.72103381,-0.57,0.49,-0.03,0.75
28.73130274,-0.18,0.53,0.17,0.58
28.74162984,-0.04,0.46,0.28,0.54
28.75152969,-0.1,0.34,0.03,0.35
28.76205873,-0.59,0.24,-0.42,0.76
28.77221394,-1.24,0.07,-0.88,1.52
28.78214884,-1.83,0.02,-1.07,2.11
28.80580473,-2.3,0.06,-1.11,2.55
28.80705285,-2.52,0.05,-1.31,2.84
28.81126285,-2.4,0.06,-1.45,2.8
28.821558,-1.88,0.06,-1.34,2.3
28.83166075,-1.21,0.23,-1.07,1.63
28.84189796,-0.88,0.51,-0.83,1.31
28.85208678,-0.89,0.66,-0.74,1.33
28.86204386,-1.17,0.63,-0.72,1.51
28.87245989,-1.35,0.46,-0.72,1.59
28.88273382,-1.28,0.22,-0.43,1.36
28.90340877,-1.02,0.12,0.03,1.02
28.90470076,-0.5,0.1,0.36,0.62
28.9116807,-0.12,0.23,0.63,0.68
28.92220283,0.15,0.38,0.83,0.92
28.9320848,0.37,0.33,0.9,1.02
28.94246578,0.38,0.1,0.88,0.96
28.95254469,0.17,-0.1,0.78,0.8
28.96296978,-0.02,-0.26,0.64,0.69
28.97300386,-0.17,-0.31,0.6,0.69
28.9827888,-0.31,-0.26,0.6,0.72
29.00440598,-0.32,-0.2,0.63,0.73
29.00570297,-0.25,-0.09,0.65,0.7
29.01233292,-0.18,0.04,0.62,0.64
29.02255177,-0.02,0.14,0.5,0.51
29.03344774,0.12,0.12,0.41,0.44
29.04277277,0.3,-0.07,0.68,0.74
29.05307484,0.17,-0.09,1.29,1.3
29.06322098,0.06,-0.08,1.68,1.68
29.07345295,0.04,-0.13,1.7,1.7
29.1041317,0.02,-0.04,1.39,1.39
29.10546589,0.17,0.13,0.95,0.97
29.10595894,0.44,0.38,0.35,0.67
29.11276293,0.76,0.59,-0.17,0.97
29.1230979,0.91,0.64,-0.41,1.18
29.13369894,0.86,0.49,-0.51,1.11
29.14343882,0.68,0.39,-0.58,0.97
29.15347385,0.53,0.4,-0.68,0.95
29.16384077,0.49,0.41,-0.89,1.09
29.17395067,0.53,0.53,-1.18,1.39
29.20428085,0.42,0.68,-1.67,1.85
29.20560169,0.37,0.75,-2.02,2.18
29.20609283,0.46,0.83,-2.21,2.4
29.21331596,0.59,0.85,-2.22,2.44
29.22354698,0.61,0.78,-2.09,2.31
29.23359776,0.46,0.77,-1.75,1.96
29.24352598,0.38,0.77,-1.32,1.57
29.25387979,0.57,0.76,-0.88,1.29
29.26408768,0.81,0.7,-0.52,1.19
29.27424884,0.81,0.59,-0.19,1.01
29.30538273,0.49,0.47,-0.1,0.68
29.30663872,0.03,0.3,-0.32,0.43
29.30726576,-0.29,0.38,-0.64,0.79
29.3135848,-0.45,0.47,-0.75,0.99
29.32394791,-0.48,0.63,-0.65,1.02
29.33395886,-0.17,0.8,-0.35,0.88
29.34405994,0.28,0.87,0.02,0.91
29.35437393,0.59,0.86,0.08,1.04
29.36449099,0.62,0.8,-0.04,1.01
29.37486577,0.47,0.71,0.03,0.85
29.40253878,0.18,0.65,0.15,0.69
29.40386772,-0.25,0.69,0.1,0.74
29.40439677,-0.62,0.67,-0.04,0.91
29.41422367,-0.64,0.7,-0.11,0.95
29.42441487,-0.32,0.95,-0.17,1.01
29.43442583,0.24,1.11,-0.38,1.19
29.44465971,0.59,1.13,-0.4,1.33
29.4548049,0.6,1.11,-0.23,1.28
29.46490192,0.43,0.93,-0.15,1.03
29.47530365,0.17,0.78,-0.03,0.79
29.50443888,-0.04,0.64,0.03,0.64
29.50565767,-0.15,0.62,0.13,0.65
29.50615168,-0.04,0.72,0.26,0.76
29.51462388,-0.07,1.02,0.29,1.06
29.52485466,0.01,1.15,0.09,1.15
29.53496599,0.14,1.16,-0.06,1.16
29.54505587,0.25,1.17,-0.1,1.2
29.55541587,0.3,1.15,-0.13,1.19
29.56554484,0.05,1.09,-0.32,1.13
29.57578278,-0.19,1.06,-0.46,1.17
29.60344982,-0.32,1.15,-0.5,1.29
29.6046567,-0.28,1.21,-0.48,1.33
29.60515165,-0.07,1.2,-0.28,1.23
29.61498499,0.04,1.14,0.05,1.14
29.62531567,0.42,0.86,0.4,1.03
29.63540697,0.87,0.64,0.87,1.38
29.64537096,0.85,0.52,1.47,1.77
29.65556288,0.57,0.52,1.91,2.05
29.66586185,0.03,0.68,2.06,2.16
29.67603874,-0.29,0.92,1.75,1.99
29.70700693,-0.24,1.08,1.25,1.66
29.70812798,0,0.92,0.89,1.28
29.70861983,0.36,0.64,0.46,0.86
29.71526384,1.03,0.36,0.41,1.16
29.72568083,1.65,0.15,0.83,1.85
29.73588777,2.12,-0.24,1.24,2.46
29.74574685,2.29,-0.79,1.42,2.8
29.75609088,2.11,-1.31,1.17,2.74
29.76635385,1.8,-1.59,0.65,2.48
29.77638769,1.58,-1.59,0.23,2.25
29.80617094,1.44,-1.5,-0.09,2.08
29.80728292,1.2,-1.35,-0.34,1.83
29.80777073,0.81,-1.2,-0.66,1.59
29.81983185,0.66,-1.02,-0.99,1.56
29.8260448,0.57,-0.83,-1.17,1.54
29.83623791,0.44,-0.69,-1.1,1.37
29.84637284,0.33,-0.6,-0.87,1.1
29.85665464,0.12,-0.58,-0.66,0.88
29.86808777,0.03,-0.59,-0.43,0.73
29.87694073,0.09,-0.55,-0.37,0.66
29.90510368,0.06,-0.46,-0.66,0.8
29.9065268,0.32,-0.38,-1.13,1.23
29.90701771,0.66,-0.31,-1.51,1.67
29.91975498,0.84,-0.22,-1.45,1.69
29.92658567,1.17,-0.11,-1.08,1.59
29.93667388,1.59,0.07,-0.48,1.66
29.94686699,1.84,0.27,0,1.85
29.95701694,1.99,0.3,0.08,2.01
29.96808386,2.12,0.32,-0.09,2.14
29.97736692,2.28,0.48,-0.22,2.34
30.008286,2.4,0.7,-0.31,2.51
30.00879097,2.29,0.7,-0.39,2.42
30.00933599,1.81,0.69,-0.48,1.99
30.01701593,1.23,0.64,-0.49,1.47
30.02705288,0.84,0.36,-0.23,0.94
30.03709698,0.67,0.12,0.13,0.69
30.04720974,0.94,-0.04,0.26,0.97
30.05741978,1.1,-0.01,0.3,1.14
30.06804371,1.13,0.1,0.28,1.16
30.07776284,1.25,0.16,0.21,1.27
30.10582185,1.3,0.19,0.34,1.35
30.10691166,1.12,0.09,0.59,1.26
30.10741091,0.96,-0.04,0.72,1.2
30.11979675,0.95,-0.28,0.72,1.22
30.12739682,0.96,-0.45,0.73,1.28
30.13762474,0.99,-0.42,0.64,1.25
30.14758182,0.99,-0.38,0.4,1.13
30.15783787,1.06,-0.26,0.33,1.14
30.16850781,1.16,-0.15,0.46,1.25
30.17823482,1.3,-0.16,0.67,1.47
30.20774364,1.35,-0.09,0.96,1.65
30.20839477,1.24,-0.05,1.01,1.6
30.20892787,1.06,-0.07,0.84,1.35
30.21780181,1.1,-0.17,0.83,1.38
30.22771478,1.16,-0.27,0.96,1.52
30.23794484,1.23,-0.35,1.1,1.68
30.24807787,1.49,-0.27,1.17,1.91
30.25877476,1.89,-0.16,1.11,2.19
30.26885366,2.33,-0.01,0.87,2.48
30.27950382,2.76,0.1,0.52,2.81
30.29010677,2.78,0.33,0.25,2.81
30.29869986,2.49,0.53,-0.05,2.54
30.32140398,2.12,0.44,-0.16,2.17
30.3226099,1.67,0.17,0,1.67
30.32823277,1.52,-0.11,0.1,1.52
30.33836889,1.89,-0.42,0.01,1.93
30.34829187,2.29,-0.54,-0.14,2.35
30.35869598,2.57,-0.37,-0.2,2.6
30.36873865,2.23,0.02,-0.17,2.23
30.37901974,1.6,0.25,-0.09,1.62
30.38926268,0.99,0.12,-0.08,1
30.39917898,0.43,-0.04,-0.05,0.43
30.42328882,0.16,-0.24,-0.12,0.31
30.42465973,0.07,-0.46,-0.37,0.59
30.42841196,-0.01,-0.63,-0.62,0.88
30.43880677,0.08,-0.83,-0.81,1.16
30.44886184,0.25,-0.94,-0.67,1.18
30.45924377,0.22,-0.82,-0.19,0.87
30.46920967,-0.08,-0.93,0.23,0.96
30.47910881,-0.43,-1.15,0.59,1.36
30.48917198,-0.59,-1.25,1,1.7
30.49977279,-0.63,-1.26,1.19,1.84
30.52079988,-0.7,-1.12,0.93,1.61
30.52201271,-0.52,-0.81,0.44,1.05
30.52915192,-0.25,-0.61,0.11,0.66
30.53927779,-0.27,-0.69,0,0.74
30.55029082,-0.34,-1.01,0.08,1.06
30.55963898,-0.53,-1.27,0.44,1.44
30.56970167,-0.88,-1.42,0.76,1.83
30.58005881,-1,-1.35,0.9,1.9
30.5896678,-0.84,-1.07,0.86,1.6
30.62123966,-0.45,-0.78,0.59,1.07
30.62259579,0.18,-0.49,0.23,0.57
30.62315083,0.78,-0.29,-0.07,0.83
30.62949276,1.16,-0.17,-0.25,1.19
30.63974476,1.23,-0.08,-0.13,1.23
30.65030193,1.16,-0.04,0.25,1.18
30.65992975,1.03,-0.04,0.59,1.18
30.67023683,0.75,-0.08,0.67,1
30.68057394,0.43,-0.05,0.58,0.72
30.69010878,0.24,-0.02,0.26,0.35
30.72259283,0.31,-0.09,-0.25,0.4
30.72311592,0.38,-0.07,-0.69,0.79
30.72361183,0.46,0,-1.05,1.14
30.73004198,0.52,0.11,-1.28,1.38
30.74024677,0.4,0.2,-1.27,1.34
30.75031567,0.11,0.27,-1,1.04
30.76041079,-0.06,0.23,-0.67,0.71
30.77038193,-0.11,0.23,-0.36,0.44
30.78069067,-0.2,0.23,-0.16,0.34
30.79045486,-0.2,0.18,-0.11,0.29
30.82167578,-0.1,0.28,-0.12,0.32
30.82290483,0.15,0.44,-0.12,0.48
30.82340884,0.39,0.7,0,0.8
30.83044982,0.27,0.96,0,0.99
30.84065986,0.02,1.05,-0.15,1.06
30.85056686,-0.29,1.17,-0.27,1.23
30.86093688,-0.57,1.26,-0.17,1.39
30.87102985,-0.77,1.32,0.04,1.52
30.88130379,-0.79,1.34,0.14,1.56
30.89097595,-0.68,1.39,0.04,1.54
30.92081881,-0.58,1.35,-0.26,1.49
30.92209077,-0.46,1.31,-0.47,1.46
30.92269087,-0.41,1.27,-0.44,1.4
30.93082666,-0.43,1.09,-0.22,1.19
30.94101572,-0.52,0.81,0.05,0.96
30.9513278,-0.74,0.57,0.27,0.97
30.96111083,-1.01,0.36,0.35,1.12
30.97150183,-1.11,0.27,0.25,1.16
30.9816227,-1.1,0.26,-0.1,1.13
30.99190688,-0.91,0.45,-0.43,1.1
31.02061486,-0.67,0.66,-0.46,1.04
31.02186775,-0.46,0.68,-0.26,0.86
31.02247977,-0.27,0.6,0.06,0.66
31.03116179,-0.36,0.48,0.28,0.66
31.04152298,-0.53,0.36,0.35,0.73
31.05158567,-0.64,0.26,0.25,0.73
31.06162977,-0.53,0,-0.07,0.53
31.07187366,-0.19,-0.2,-0.14,0.3
31.08239985,0.05,-0.23,0.19,0.3
31.09234786,0.26,-0.4,0.61,0.77
31.12256765,0.5,-0.59,0.97,1.24
31.1238327,0.59,-0.8,1.26,1.6
31.12434387,0.74,-1.05,1.32,1.84
31.13164377,0.71,-1.09,1.32,1.85
31.14203286,0.58,-1.01,1.19,1.66
31.15210986,0.72,-1.04,0.88,1.54
31.16209698,0.97,-1.18,0.62,1.64
31.17272687,1.3,-1.38,0.57,1.97
31.18300295,1.52,-1.53,0.73,2.27
31.19269681,1.59,-1.51,0.87,2.35
31.22237968,1.58,-1.41,0.82,2.27
31.22364783,1.4,-1.11,0.56,1.87
31.22419882,1.3,-0.83,0.2,1.55
31.23184967,1.26,-0.83,-0.15,1.51
31.24233198,1.19,-0.97,-0.38,1.58
31.2524209,1.04,-1.09,-0.43,1.56
31.26245594,0.84,-1.15,-0.29,1.45
31.27271795,0.65,-1.05,-0.14,1.24
31.2830267,0.57,-0.84,-0.14,1.02
31.29316878,0.56,-0.62,-0.19,0.85
31.3212328,0.57,-0.4,-0.26,0.74
31.32251477,0.52,-0.14,-0.39,0.66
31.32309771,0.58,0.05,-0.49,0.76
31.33646393,0.78,0.15,-0.4,0.88
31.34270096,0.9,0.12,-0.31,0.95
31.35288,0.99,-0.05,-0.13,0.99
31.36280394,1.03,-0.23,0.21,1.07
31.37317991,0.93,-0.4,0.58,1.16
31.38501167,0.76,-0.49,0.89,1.26
31.39338398,0.47,-0.47,0.89,1.11
31.42124486,0.16,-0.48,0.53,0.73
31.42260981,-0.1,-0.6,0.15,0.62
31.42311573,-0.27,-0.63,-0.14,0.69
31.43665791,-0.26,-0.63,-0.32,0.75
31.4430809,-0.11,-0.63,-0.4,0.75
31.45334888,0.22,-0.48,-0.34,0.62
31.46341991,0.52,-0.31,-0.09,0.61
31.47370291,0.54,-0.14,0.11,0.56
31.48483992,0.4,0.01,0.17,0.43
31.49424076,0.42,0.15,0.02,0.44
31.52044177,0.47,0.26,-0.09,0.54
31.52171993,0.4,0.45,-0.06,0.6
31.52227187,0.34,0.69,-0.01,0.76
31.53222084,0.23,0.84,0.15,0.88
31.54230881,0.13,0.81,0.19,0.84
31.55264878,-0.04,0.66,0.12,0.67
31.56259084,-0.26,0.54,0,0.59
31.57331181,-0.38,0.42,-0.08,0.57
31.58514881,-0.67,0.74,0.09,1
31.59348297,-1.36,1.88,0.53,2.38
31.61890697,-1.27,2.33,0.41,2.68
31.62008572,-0.02,1.67,0.06,1.67
31.62229967,0.67,1.6,0.53,1.81
31.63624382,0.88,1.63,1.29,2.25
31.64273787,0.97,1.17,1.68,2.26
31.65291071,1.06,0.29,1.68,2
31.6630497,1.14,-0.46,1.55,1.97
31.67351675,0.99,-0.7,1.51,1.93
31.6848588,0.69,-0.37,1.52,1.7
31.6936307,0.4,0.07,1.03,1.1
31.72182989,-0.06,0.36,-0.06,0.36
31.72317266,-0.33,0.51,-1.16,1.3
31.72370982,-0.2,0.75,-1.81,1.96
31.73613286,0.18,0.89,-1.89,2.09
31.74327087,0.55,0.91,-1.56,1.88
31.75336599,0.45,0.83,-1.04,1.4
31.76379681,0,0.65,-0.83,1.05
31.77416682,-0.76,0.53,-0.83,1.24
31.78455281,-1.78,0.31,-1.24,2.19
31.79358768,-2.36,-0.08,-1.9,3.03
31.82188892,-2.31,-0.4,-2.32,3.29
31.82348394,-1.78,-0.82,-2.15,2.9
31.82408977,-1.25,-1.14,-1.47,2.24
31.83693075,-0.83,-1.32,-0.81,1.75
31.84370375,-0.92,-1.28,-0.18,1.58
31.8540287,-1.27,-1.07,0.27,1.68
31.86405468,-1.37,-0.91,0.49,1.71
31.87453699,-1.15,-0.82,0.52,1.5
31.88506079,-0.84,-0.7,0.34,1.14
31.89923787,-0.71,-0.66,-0.13,0.97
31.92245984,-0.79,-0.65,-0.67,1.22
31.92366171,-0.82,-0.57,-0.94,1.37
31.92416573,-0.86,-0.65,-0.62,1.24
31.93744779,-1.3,-0.84,0.11,1.55
31.94414568,-2.1,-1.03,0.54,2.4
31.95428991,-2.66,-1.25,0.51,2.98
31.96445084,-2.79,-1.45,0.37,3.16
31.97454381,-2.59,-1.42,0.3,2.96
31.98525,-2.02,-1.21,0.34,2.37
31.99808288,-1.58,-0.89,0.32,1.84
32.01910281,-1.39,-0.49,0.2,1.48
32.02020383,-1.34,-0.07,0.2,1.35
32.02438188,-1.2,0.21,0.19,1.23
32.03636789,-0.97,0.33,0.4,1.09
32.04448271,-1.2,0.39,0.64,1.41
32.0549407,-1.51,0.37,0.62,1.67
32.06476593,-1.62,0.2,0.65,1.75
32.07534599,-1.54,0.21,0.92,1.8
32.08583689,-1.21,0.31,0.99,1.59
32.09942389,-0.66,0.4,1.03,1.28
32.12175179,0.22,0.6,1.39,1.52
32.1229918,0.84,0.96,1.81,2.21
32.12462091,1.4,1.44,1.77,2.67
32.13596392,1.56,1.96,1.54,2.94
32.14489889,1.01,2.37,1.33,2.89
32.15532494,0.16,2.85,1.28,3.12
32.16533685,0.06,2.63,0.65,2.7
32.17607379,0.99,1.75,-0.27,2.02
32.18590188,2.47,1.54,0.14,2.91
32.22114778,4.42,1.55,1.36,4.87
32.22250891,5.92,1.2,2.34,6.47
32.22299886,6.55,0.23,2.67,7.07
32.22507787,6.4,-0.91,2.43,6.9
32.23631978,5.87,-1.73,2.12,6.47
32.24524379,5.41,-2.41,2.12,6.29
32.25585175,5.36,-2.77,2.16,6.4
32.2658329,5.57,-2.67,1.66,6.39
32.27579689,5.61,-2.61,0.65,6.22
32.28635597,5.29,-2.66,-0.44,5.93
32.32040381,4.4,-2.51,-1.38,5.25
32.32184386,3.44,-2.33,-1.98,4.6
32.32233787,2.41,-2.34,-2.4,4.12
32.32555771,1.43,-2.58,-2.78,4.05
32.33635569,0.58,-3.26,-2.94,4.42
32.34583378,0.5,-3.68,-2.11,4.27
32.35620165,1.68,-3.3,-0.4,3.72
32.36751485,4.23,-2.6,1.03,5.07
32.3762579,6.25,-2.08,2.21,6.94
32.38689995,7.6,-1.65,2.86,8.28
32.42092586,7.86,-1.21,1.69,8.13
32.42214775,6.83,-1.2,-0.07,6.93
32.42263985,5.65,-1.4,-1.4,5.98
32.42599487,4.45,-1.28,-2.26,5.15
32.43667984,3.78,-1,-1.69,4.25
32.44642782,4.01,-0.96,-1.11,4.27
32.45659494,4.2,-1.19,-0.32,4.37
32.46747398,4.05,-1.44,0.29,4.3
32.47672892,3.98,-1.63,0.58,4.33
32.48680592,3.33,-1.92,0.56,3.88
32.52049971,2.13,-2.33,0.04,3.15
32.52177382,1.05,-2.87,-0.71,3.13
32.52226377,0.2,-3.47,-1.12,3.65
32.5264008,-0.69,-4.04,-0.94,4.2
32.53670287,-1.63,-4.49,-0.31,4.78
32.54672575,-2.32,-4.65,0.26,5.2
32.55694985,-2.63,-4.5,0.59,5.24
32.56744385,-2.39,-4.19,1.2,4.97
32.57702184,-1.39,-3.57,1.95,4.29
32.58773184,0.01,-2.69,2.67,3.79
32.62148666,0.64,-2.1,2.85,3.59
32.62278581,0.72,-1.86,2.58,3.26
32.62342477,0.55,-1.66,2.04,2.68
32.62688065,0.33,-1.39,1.44,2.02
32.6371479,0.1,-1.14,0.92,1.46
32.64706779,-0.2,-1.06,0.8,1.34
32.65764666,-0.82,-1.05,1.05,1.69
32.66799784,-1.7,-1.03,1.28,2.36
32.67807388,-2.22,-0.99,1.26,2.73
32.68821287,-2.21,-0.82,1.15,2.62
32.72280073,-1.86,-0.53,1.08,2.21
32.72392368,-1.27,-0.17,1.34,1.85
32.72441483,-0.93,0.47,1.82,2.09
32.72729397,-1.36,1.27,1.8,2.58
32.73756075,-1.69,1.52,1.3,2.61
32.74767971,-1.78,1.48,0.84,2.46
32.75784087,-1.7,1.39,0.61,2.27
32.76810265,-1.44,1.23,0.65,2
32.77791166,-0.73,0.79,0.9,1.4
32.78855181,0.24,0.01,1.35,1.37
32.82452583,1.01,-0.92,1.77,2.23
32.8251698,1.29,-1.58,2.24,3.02
32.8256588,0.84,-1.79,2.46,3.15
32.8277328,0.1,-1.78,2.03,2.7
32.83807778,-0.42,-1.74,0.97,2.03
32.84801579,-0.58,-1.75,-0.18,1.85
32.85850883,-0.76,-1.69,-1.05,2.12
32.86845875,-0.9,-1.38,-1.51,2.23
32.87890482,-0.94,-0.97,-1.47,1.99
32.88894796,-1.16,-0.47,-1.26,1.77
32.92472696,-1.06,-0.13,-1.07,1.51
32.92530584,-0.53,0.15,-0.72,0.9
32.92582083,-0.12,0.3,-0.5,0.59
32.92816186,0.07,0.29,-0.45,0.53
32.9385798,0.26,0.19,-0.28,0.42
32.94894385,0.29,0.03,-0.17,0.33
32.9589448,0.05,-0.22,-0.18,0.28
32.96899176,-0.04,-0.44,-0.41,0.6
32.9786818,0.17,-0.49,-0.74,0.9
32.98878574,0.27,-0.52,-1.01,1.16
33.02202797,0.25,-0.57,-1.23,1.37
33.02339792,0.5,-0.58,-1.06,1.3
33.02395296,0.57,-0.55,-0.69,1.05
33.02893782,0.36,-0.47,-0.65,0.87
33.03904295,0.45,-0.31,-0.79,0.96
33.04895592,0.61,-0.05,-0.89,1.08
33.05894899,0.49,0.24,-0.94,1.08
33.0690589,0.35,0.51,-0.82,1.02
33.07892895,-0.05,0.8,-0.65,1.03
33.08942986,-0.58,1.06,-0.72,1.4
33.12675381,-1.01,1.2,-1.01,1.86
33.12731171,-1.25,1.26,-1.45,2.29
33.1278398,-1.22,1.31,-1.73,2.48
33.12906694,-0.93,1.52,-1.5,2.32
33.13943195,-0.12,1.69,-0.78,1.86
33.15019178,0.7,1.69,0.32,1.85
33.15970683,1.15,1.78,1.27,2.47
33.16982579,1.27,1.88,1.76,2.87
33.18009686,1.4,1.8,1.8,2.9
33.19033575,1.62,1.67,1.76,2.91
33.20595694,1.79,1.62,1.68,2.94
33.21046495,1.77,1.35,1.59,2.73
33.23791599,1.56,0.85,1.51,2.33
33.23911285,1.12,0.35,1.52,1.92
33.23961687,0.42,0.16,1.73,1.78
33.25299597,0.02,0.07,1.87,1.87
33.25990081,-0.41,0.42,2.15,2.22
33.27006292,-0.91,1.09,2.28,2.68
33.28012776,-0.82,1.39,1.8,2.41
33.29031897,0.13,0.98,0.99,1.39
33.30436277,1.25,0.42,0.52,1.41
33.31027794,1.8,0.07,0.8,1.97
33.33700681,1.88,-0.31,1.19,2.24
33.338305,1.83,-0.78,1.33,2.39
33.34008598,1.9,-1.28,1.16,2.56
33.35348368,2.13,-1.77,0.94,2.92
33.36023569,2.23,-2.18,0.73,3.2
33.37076998,2.08,-2.35,0.47,3.17
33.38045478,1.93,-2.24,0.13,2.95
33.3912828,1.97,-2.07,-0.08,2.85
33.40487766,2.19,-2.05,-0.08,3
33.41123199,2.43,-1.82,0.16,3.04
33.43937087,2.46,-1.34,0.56,2.85
33.4407649,2.21,-0.9,0.7,2.48
33.4412868,1.88,-0.63,0.6,2.07
33.45303869,1.59,-0.56,0.34,1.71
33.46075678,1.46,-0.57,0.03,1.56
33.47117472,1.4,-0.61,-0.3,1.55
33.48096895,1.36,-0.59,-0.62,1.6
33.49176788,1.39,-0.55,-0.9,1.74
33.50544286,1.5,-0.54,-1,1.88
33.51165295,1.6,-0.66,-0.92,1.96
33.53885794,1.6,-0.74,-0.77,1.92
33.54003382,1.39,-0.61,-0.54,1.61
33.54097366,1.04,-0.37,-0.32,1.14
33.55264378,0.87,-0.07,-0.1,0.87
33.56125283,0.85,0,0.05,0.85
33.57154894,0.9,-0.15,0.05,0.91
33.58151984,0.98,-0.29,-0.01,1.02
33.59214282,1.03,-0.3,-0.17,1.08
33.60573387,1.16,-0.17,-0.39,1.23
33.61195469,1.05,-0.06,-0.72,1.27
33.63798285,0.59,0.06,-1.04,1.19
33.63925171,-0.02,0.26,-1.2,1.22
33.64132285,-0.49,0.4,-1.1,1.26
33.65295386,-0.45,0.41,-1.14,1.29
33.6615839,-0.06,0.42,-1.28,1.34
33.67208195,0.36,0.43,-1.34,1.45
33.68199587,0.62,0.46,-1.22,1.44
33.69260383,0.79,0.57,-0.89,1.31
33.70565367,0.93,0.68,-0.7,1.34
33.71239281,0.98,0.73,-0.78,1.44
33.7394948,0.77,0.76,-0.87,1.38
33.74079275,0.35,0.83,-0.87,1.25
33.7416687,-0.15,0.92,-0.68,1.15
33.7527988,-0.56,0.84,-0.34,1.06
33.76213598,-0.53,0.72,0.05,0.89
33.77222872,-0.39,0.59,0.32,0.77
33.78215265,-0.29,0.59,0.42,0.78
33.79305387,-0.36,0.58,0.24,0.72
33.80646586,-0.64,0.61,-0.12,0.89
33.81291866,-0.94,0.72,-0.3,1.22
33.83929086,-1.22,0.83,-0.21,1.49
33.84049177,-1.27,0.89,0.03,1.55
33.84215283,-0.91,0.86,0.23,1.27
33.85291886,-0.58,0.76,0.24,0.98
33.86256266,-0.74,0.97,0.11,1.22
33.8727448,-1.37,1.42,-0.36,2
33.88410783,-1.73,1.71,-0.66,2.52
33.89306688,-1.54,1.68,-0.58,2.35
33.90684175,-1.18,1.52,-0.14,1.92
33.91335678,-0.55,1.29,0.48,1.48
33.93784881,-0.01,1.05,1.11,1.52
33.9390769,0.36,0.44,1.33,1.44
33.9427228,0.63,-0.5,1.14,1.39
33.95349789,0.69,-1.2,0.87,1.63
33.96297979,0.54,-1.69,0.51,1.84
33.97339177,0.27,-1.99,0.01,2
33.98409986,0.17,-2.19,-0.6,2.27
33.99376583,-0.16,-2.25,-1.2,2.55
34.00855398,-0.53,-2.34,-1.81,3
34.01381588,-0.55,-2.3,-2.12,3.17
34.03845596,-0.75,-1.9,-1.99,2.85
34.03971887,-1.28,-1.39,-1.74,2.56
34.04318476,-1.17,-1.24,-1.78,2.46
34.05351281,-0.81,-1.3,-2.01,2.52
34.06329393,-0.62,-1.29,-2.06,2.5
34.07404566,-0.74,-1.14,-1.96,2.38
34.08424282,-0.86,-0.95,-1.78,2.19
34.09438586,-0.78,-0.85,-1.55,1.93
34.10784864,-0.64,-0.77,-1.19,1.55
34.11432791,-0.62,-0.75,-0.68,1.18
34.13835788,-0.39,-0.96,-0.28,1.07
34.13965273,-0.41,-1.12,-0.12,1.19
34.14365983,-0.64,-1.08,-0.17,1.26
34.15383673,-0.92,-0.9,-0.36,1.33
34.16377187,-1.17,-0.56,-0.32,1.33
34.17429399,-1.2,-0.2,-0.08,1.21
34.18424487,-1.06,-0.07,0.07,1.06
34.1945529,-0.94,-0.01,0.1,0.94
34.20808697,-0.87,0.08,0.09,0.87
34.21468067,-0.74,0.14,0.33,0.82
34.23771095,-0.91,0.36,0.8,1.26
34.23897982,-1.28,0.67,1.39,2
34.24409986,-1.62,0.93,1.84,2.62
34.25446367,-1.86,1.14,2.04,2.98
34.26421976,-2.13,1.34,1.79,3.08
34.2745657,-2.31,1.49,1.27,3.02
34.28472781,-2.07,1.47,0.95,2.71
34.29506779,-1.56,1.54,1.39,2.59
34.30917478,-1.24,1.73,2.39,3.2
34.31516981,-0.92,1.88,3.53,4.1
34.33762074,-0.62,2.01,4.23,4.72
34.33879185,-0.52,2.07,4.32,4.81
34.34477377,-0.7,2.18,3.89,4.51
34.35475969,-1.04,2.26,3.3,4.13
34.36458778,-1.31,2.2,2.67,3.69
34.37522984,-1.21,1.97,2.17,3.17
34.38494587,-0.88,1.71,1.76,2.6
34.39548492,-0.56,1.55,1.27,2.08
34.40895891,-0.42,1.46,0.82,1.72
34.41567588,-0.47,1.37,0.54,1.54
34.44009185,-0.61,1.2,0.57,1.46
34.4413209,-0.65,0.93,0.8,1.38
34.4450469,-0.7,0.71,1.21,1.56
34.45519185,-0.6,0.46,1.58,1.75
34.46513987,-0.48,0.17,1.77,1.84
34.47557974,-0.42,-0.08,1.63,1.68
34.48553276,-0.46,-0.21,1.25,1.34
34.49578381,-0.5,-0.29,0.7,0.9
34.50947571,-0.47,-0.48,0.03,0.67
34.51611376,-0.5,-0.52,-0.5,0.87
34.53790379,-0.37,-0.35,-0.84,0.98
34.53925896,0.06,-0.25,-0.91,0.94
34.54541588,0.58,-0.25,-0.66,0.91
34.5557189,1.22,-0.38,-0.28,1.3
34.56573772,1.66,-0.7,0.21,1.81
34.5759697,1.8,-1.14,0.58,2.2
34.58588481,1.71,-1.56,0.7,2.41
34.59624982,1.57,-2.01,0.57,2.61
34.60990787,1.3,-2.42,0.2,2.75
34.63764191,1.06,-2.66,-0.25,2.87
34.63896275,0.85,-2.72,-0.7,2.93
34.63954067,0.62,-2.59,-1.08,2.87
34.64584875,0.45,-2.26,-1.24,2.61
34.65637875,0.48,-1.9,-1.18,2.28
34.66692877,0.67,-1.75,-1.05,2.14
34.67639065,0.65,-1.63,-0.86,1.95
34.68654084,0.33,-1.39,-0.8,1.63
34.69677877,-0.04,-1.14,-0.96,1.49
34.71033382,-0.3,-0.99,-1.2,1.58
34.74067378,-0.31,-0.98,-1.49,1.81
34.7419188,-0.19,-0.91,-1.59,1.84
34.74242067,-0.05,-0.71,-1.44,1.6
34.74618077,0.09,-0.56,-1.21,1.33
34.75643969,0.12,-0.47,-1.05,1.15
34.76690197,0.1,-0.42,-0.96,1.05
34.77668786,0.04,-0.4,-0.95,1.03
34.78700876,-0.07,-0.37,-0.91,0.98
34.79674482,-0.14,-0.38,-0.79,0.88
34.81027794,-0.15,-0.44,-0.64,0.79
34.83940983,0.02,-0.46,-0.58,0.74
34.84056091,0.27,-0.31,-0.49,0.63
34.84104872,0.37,-0.05,-0.36,0.51
34.84652686,0.4,0.17,-0.13,0.45
34.85675097,0.29,0.29,0.03,0.41
34.86695671,0.08,0.26,0.03,0.27
34.87721395,-0.13,0.23,-0.16,0.3
34.88734674,-0.26,0.22,-0.4,0.52
34.89712095,-0.31,0.21,-0.58,0.69
34.91040683,-0.21,0.29,-0.61,0.7
34.93622494,-0.06,0.46,-0.35,0.58
34.93746996,0.19,0.61,0.13,0.65
34.93795395,0.45,0.69,0.66,1.05
34.94723368,0.67,0.7,1.13,1.48
34.95748472,0.75,0.67,1.36,1.69
34.96738386,0.67,0.59,1.3,1.57
34.97756886,0.47,0.53,1.05,1.26
34.98782587,0.3,0.45,0.63,0.83
34.99800682,0.31,0.44,0.27,0.6
35.01169491,0.38,0.49,0.12,0.63
35.03841782,0.39,0.61,0.17,0.74
35.03967977,0.34,0.66,0.26,0.78
35.04027581,0.25,0.53,0.36,0.68
35.04761887,0.15,0.27,0.37,0.48
35.05789685,0.04,-0.02,0.26,0.26
35.06789064,-0.07,-0.15,0.28,0.32
35.07826376,-0.51,0.09,0.58,0.77
35.08829284,-1.26,0.69,0.87,1.67
35.09850168,-1.32,0.94,0.57,1.71
35.11213183,-0.91,0.82,-0.06,1.22
35.13731885,-0.44,0.71,-0.79,1.14
35.13867569,0.25,0.85,-1.4,1.65
35.13918066,0.86,1.5,-1.43,2.24
35.14832973,1.16,2.11,-1.13,2.65
35.15844679,1.42,1.96,-0.76,2.53
35.16857886,1.76,1,-0.17,2.03
35.17855787,1.99,-0.27,0.32,2.03
35.18868876,1.92,-1.41,0.51,2.43
35.19906473,1.6,-2.27,0.43,2.81
35.21223068,1.15,-2.84,0.11,3.06
35.23692894,0.66,-3.12,-0.29,3.2
35.23832178,0.17,-3.14,-0.68,3.21
35.23882866,-0.37,-2.85,-0.89,3
35.24855685,-0.85,-2.21,-0.86,2.51
35.25876379,-1.23,-1.39,-0.65,1.96
35.2688458,-1.37,-0.63,-0.47,1.57
35.27887297,-1.08,-0.24,-0.52,1.22
35.28912377,-0.48,-0.12,-0.69,0.84
35.29936981,0.2,-0.01,-0.8,0.82
35.31319284,0.73,0.26,-0.71,1.05
35.33709192,1.03,0.57,-0.45,1.26
35.33827066,1.11,0.53,-0.41,1.29
35.3387599,0.98,0.15,-0.58,1.14
35.34928679,0.55,-0.33,-0.92,1.12
35.35932493,-0.07,-0.63,-1.21,1.36
35.36926484,-0.69,-0.71,-1.38,1.69
35.37928295,-1.16,-0.66,-1.45,1.97
35.38953876,-1.31,-0.62,-1.54,2.11
35.39994097,-1.2,-0.61,-1.57,2.06
35.41348577,-0.89,-0.55,-1.44,1.77
35.43869972,-0.58,-0.39,-1.13,1.32
35.43980598,-0.43,-0.07,-0.7,0.82
35.44028878,-0.36,0.25,-0.2,0.48
35.45350695,-0.35,0.45,0.19,0.6
35.4599247,-0.44,0.62,0.46,0.88
35.46977568,-0.71,0.81,0.69,1.27
35.47975779,-1.09,0.96,0.81,1.66
35.48996067,-1.4,1,0.8,1.89
35.50179195,-1.63,0.97,0.79,2.05
35.51382184,-1.82,0.95,0.8,2.2
35.53520584,-1.8,0.99,0.86,2.22
35.53636265,-1.7,1.07,1.07,2.27
35.53975582,-1.51,1.13,1.26,2.26
35.55328274,-1.29,1.19,1.44,2.27
