time,ax,ay,az,atotal
0.00851130485534668,0.18,-0.14,0.02,0.22
0.01855635643005371,0.25,-0.06,0.01,0.25
0.028499364852905273,0.24,0.02,-0.06,0.24
0.03905940055847168,0.21,0.01,-0.11,0.23
0.04894423484802246,0.17,-0.09,-0.12,0.22
0.06346440315246582,0.13,-0.15,-0.09,0.21
0.07751941680908203,0.09,-0.13,-0.07,0.17
0.07890534400939941,0.09,-0.09,-0.07,0.14
0.08909344673156738,0.05,-0.06,-0.08,0.11
0.09897136688232422,0.02,-0.02,-0.03,0.04
0.10925126075744629,0.0,0.02,0.04,0.04
0.11944437026977539,0.01,0.03,0.07,0.07
0.12966656684875488,0.0,0.06,0.06,0.08
0.13979554176330566,-0.06,0.1,0.11,0.16
0.15012335777282715,-0.1,0.08,0.11,0.16
0.16694140434265137,-0.12,0.02,0.06,0.13
0.18119454383850098,-0.14,-0.01,0.0,0.14
0.18287158012390137,-0.14,0.0,-0.1,0.17
0.1896054744720459,-0.15,0.0,-0.18,0.23
0.19970345497131348,-0.15,0.03,-0.14,0.2
0.21011137962341309,-0.12,0.01,-0.05,0.13
0.22041630744934082,-0.06,-0.02,-0.04,0.07
0.23021745681762695,0.01,-0.02,-0.06,0.06
0.2405533790588379,0.11,0.02,-0.11,0.15
0.25254034996032715,0.16,0.05,-0.19,0.25
0.28351855278015137,0.14,0.05,-0.16,0.21
0.28493523597717285,0.06,-0.01,-0.03,0.06
0.2863314151763916,-0.01,-0.09,0.06,0.1
0.2903282642364502,0.0,-0.12,0.14,0.18
0.30133557319641113,0.02,-0.09,0.11,0.14
0.31062841415405273,0.06,-0.04,0.02,0.07
0.32103943824768066,0.07,0.0,-0.03,0.07
0.3311192989349365,0.04,0.03,-0.01,0.05
0.34108424186706543,-0.02,0.03,-0.01,0.03
0.35170435905456543,-0.09,0.05,0.0,0.1
0.36559033393859863,-0.11,0.06,-0.01,0.12
0.3813445568084717,-0.09,0.03,-0.05,0.1
0.3829495906829834,-0.07,0.0,-0.06,0.09
0.39102935791015625,-0.03,-0.01,-0.07,0.07
0.4013533592224121,-0.01,-0.01,-0.05,0.05
0.4113273620605469,0.0,0.04,-0.03,0.05
0.4215564727783203,-0.02,0.05,-0.01,0.05
0.4316365718841553,-0.02,-0.01,-0.03,0.03
0.44237256050109863,-0.01,-0.04,-0.07,0.08
0.4520714282989502,0.03,-0.03,-0.06,0.07
0.4618675708770752,0.04,0.03,-0.02,0.05
0.4783813953399658,0.02,0.04,0.01,0.04
0.48195624351501465,-0.01,-0.03,0.0,0.03
0.4920234680175781,-0.03,-0.07,-0.02,0.07
0.5020754337310791,0.01,-0.05,-0.07,0.08
0.5121762752532959,0.02,0.02,-0.13,0.13
0.5228283405303955,-0.06,0.12,-0.15,0.2
0.5324244499206543,-0.1,0.12,-0.09,0.18
0.5426414012908936,-0.16,0.09,-0.11,0.21
0.5528304576873779,-0.2,0.05,-0.15,0.25
0.5625755786895752,-0.23,0.06,-0.14,0.27
0.5784153938293457,-0.23,0.09,-0.11,0.27
0.5826785564422607,-0.22,0.11,-0.05,0.25
0.5928254127502441,-0.25,0.14,-0.04,0.28
0.6031043529510498,-0.2,0.24,0.04,0.31
0.6128134727478027,-0.29,0.38,0.05,0.48
0.6233594417572021,-0.45,0.45,-0.03,0.63
0.6333415508270264,-0.47,0.32,-0.11,0.57
0.6435515880584717,-0.46,0.26,-0.17,0.55
0.6541802883148193,-0.41,0.25,-0.15,0.5
0.6633093357086182,-0.43,0.2,-0.08,0.48
0.6786253452301025,-0.51,0.17,-0.07,0.54
0.6838693618774414,-0.48,0.14,-0.06,0.5
0.6935102939605713,-0.45,0.11,0.1,0.47
0.7036783695220947,-0.43,0.27,0.42,0.65
0.7137844562530518,-0.44,0.36,0.9,1.06
0.7241053581237793,-0.42,0.45,1.2,1.34
0.7347652912139893,-0.54,0.5,1.28,1.47
0.7444734573364258,-0.63,0.5,1.28,1.51
0.755082368850708,-0.51,0.48,1.23,1.41
0.7643043994903564,-0.35,0.45,1.3,1.41
0.7780134677886963,-0.23,0.38,1.44,1.5
0.7839484214782715,-0.11,0.25,1.46,1.48
0.7942523956298828,0.1,0.19,1.56,1.57
0.8044164180755615,0.23,0.25,1.43,1.46
0.8147642612457275,0.21,0.2,0.9,0.94
0.8247654438018799,0.12,0.07,0.32,0.34
0.8349535465240479,0.13,-0.12,-0.31,0.35
0.8448293209075928,0.12,-0.3,-0.92,0.97
0.8594095706939697,0.07,-0.53,-1.51,1.6
0.86557936668396,-0.03,-0.84,-2.08,2.24
0.8799512386322021,-0.13,-1.11,-2.68,2.9
0.8850395679473877,-0.26,-1.28,-3.21,3.46
0.8951022624969482,-0.39,-1.32,-3.7,3.94
0.9051194190979004,-0.65,-1.25,-4.23,4.45
0.9151113033294678,-0.88,-1.19,-4.5,4.73
0.9254543781280518,-0.9,-1.1,-4.61,4.82
0.9355514049530029,-0.73,-1.0,-4.51,4.67
0.946021318435669,-0.43,-0.97,-4.18,4.31
0.9632093906402588,-0.18,-1.02,-3.77,3.9
0.9658005237579346,-0.01,-1.06,-3.13,3.3
0.9777953624725342,0.16,-1.02,-2.29,2.51
0.9857933521270752,0.25,-0.92,-1.23,1.55
0.9955422878265381,0.26,-0.7,-0.09,0.75
1.00620436668396,0.25,-0.35,1.06,1.14
1.0161724090576172,0.38,0.12,2.51,2.54
1.0261332988739014,0.63,0.78,4.3,4.41
1.036360502243042,0.73,1.49,5.96,6.18
1.0467734336853027,0.63,1.93,6.76,7.05
1.0608203411102295,0.36,1.97,6.83,7.11
1.0792124271392822,0.1,1.82,6.43,6.68
1.0810644626617432,-0.18,1.58,5.46,5.68
1.0864694118499756,-0.43,1.19,4.58,4.75
1.0963685512542725,-0.54,0.84,4.26,4.37
1.1066124439239502,-0.5,0.65,3.91,3.99
1.117626428604126,-0.46,0.47,3.5,3.56
1.127117395401001,-0.45,0.2,2.84,2.88
1.137150526046753,-0.41,-0.06,2.12,2.16
1.1476764678955078,-0.54,-0.41,1.07,1.26
1.161536455154419,-0.82,-0.84,-0.13,1.18
1.1792652606964111,-1.08,-1.21,-1.27,2.05
1.181098461151123,-1.28,-1.46,-2.23,2.95
1.1872353553771973,-1.34,-1.54,-2.9,3.54
1.1970784664154053,-1.27,-1.47,-3.41,3.92
1.2074244022369385,-1.2,-1.34,-3.92,4.31
1.2176554203033447,-1.19,-1.23,-4.43,4.74
1.2277052402496338,-1.27,-1.19,-4.98,5.27
1.2378463745117188,-1.34,-1.15,-5.37,5.65
1.2477424144744873,-1.3,-1.03,-5.52,5.76
1.2580504417419434,-1.32,-0.87,-5.51,5.73
1.279137372970581,-1.36,-0.7,-5.38,5.59
1.2807374000549316,-1.4,-0.56,-5.23,5.44
1.2875664234161377,-1.44,-0.58,-5.1,5.33
1.2979774475097656,-1.41,-0.7,-4.92,5.16
1.30814528465271,-1.36,-0.82,-4.42,4.69
1.3181734085083008,-1.27,-0.85,-3.56,3.87
1.3284542560577393,-1.19,-0.85,-2.26,2.69
1.3386905193328857,-1.07,-0.76,-0.36,1.36
1.348644495010376,-0.7,-0.4,2.22,2.36
1.3585312366485596,-0.03,0.21,5.51,5.51
1.3791944980621338,0.7,0.88,8.59,8.66
1.380678415298462,1.22,1.24,10.34,10.48
1.3885984420776367,1.58,1.34,10.59,10.79
1.3984603881835938,1.57,1.28,10.35,10.54
1.4089083671569824,2.3,1.19,8.51,8.89
1.418884515762329,2.02,0.63,6.87,7.18
1.4290363788604736,1.24,-0.04,5.74,5.87
1.4395604133605957,0.37,-0.35,4.91,4.93
1.451317548751831,-0.23,-0.21,3.98,3.99
1.459444284439087,-0.62,0.0,2.95,3.01
1.4775254726409912,-0.99,0.15,1.87,2.12
1.4791843891143799,-1.56,0.22,0.76,1.74
1.4898045063018799,-2.14,0.17,-0.1,2.14
1.5000975131988525,-2.54,0.23,-0.78,2.66
1.5097663402557373,-2.85,0.33,-1.63,3.29
1.5200793743133545,-3.17,0.25,-2.5,4.04
1.530611276626587,-3.32,0.12,-3.24,4.64
1.5400993824005127,-3.01,0.0,-4.07,5.06
1.5515673160552979,-3.15,-0.13,-4.65,5.61
1.559955358505249,-3.7,-0.28,-5.29,6.46
1.5782544612884521,-3.24,-0.39,-5.77,6.62
1.5801713466644287,-3.01,-0.43,-5.96,6.69
1.590271234512329,-2.72,-0.48,-6.04,6.64
1.6001744270324707,-2.57,-0.6,-5.82,6.39
1.610790491104126,-2.23,-0.73,-5.43,5.91
1.6207525730133057,-1.9,-0.82,-5.04,5.44
1.6310994625091553,-1.67,-0.87,-4.66,5.02
1.6407225131988525,-1.36,-0.9,-4.19,4.49
1.6554934978485107,-1.14,-1.02,-3.59,3.9
1.6608843803405762,-0.91,-1.12,-2.79,3.14
1.6764473915100098,-0.62,-1.14,-1.63,2.08
1.6806063652038574,-0.25,-0.99,-0.07,1.02
1.690981388092041,0.21,-0.7,1.83,1.97
1.7009494304656982,0.88,-0.31,4.18,4.28
1.71103835105896,1.74,0.2,6.57,6.79
1.7214972972869873,2.44,0.64,8.29,8.66
1.7312915325164795,2.82,0.7,8.92,9.38
1.7414252758026123,3.0,0.4,8.7,9.21
1.7569594383239746,2.94,0.01,7.87,8.4
1.7615525722503662,2.55,-0.35,6.76,7.23
1.7776083946228027,2.04,-0.65,5.65,6.04
1.7812933921813965,1.46,-0.91,4.56,4.87
1.7916724681854248,0.95,-1.05,3.81,4.06
1.801828384399414,0.76,-0.86,3.42,3.6
1.8118703365325928,0.63,-0.53,2.68,2.8
1.8222005367279053,0.23,-0.35,1.74,1.78
1.8328254222869873,-0.22,-0.31,0.73,0.82
1.8422572612762451,-0.67,-0.29,-0.25,0.77
1.8564424514770508,-1.18,-0.29,-1.12,1.65
1.8623745441436768,-1.68,-0.25,-1.87,2.52
1.8769505023956299,-1.99,-0.14,-2.44,3.15
1.882749319076538,-2.26,-0.05,-3.07,3.81
1.892099380493164,-2.55,-0.02,-3.67,4.46
1.9026284217834473,-2.78,0.03,-4.18,5.02
1.9124963283538818,-2.89,0.01,-4.55,5.39
1.9226343631744385,-2.98,-0.03,-4.75,5.6
1.93367338180542,-3.04,-0.04,-4.84,5.71
1.9429984092712402,-3.02,-0.06,-4.82,5.68
1.9571714401245117,-2.88,-0.13,-4.72,5.53
1.9627573490142822,-2.64,-0.2,-4.57,5.28
1.9762332439422607,-2.34,-0.28,-4.37,4.96
1.9826343059539795,-2.03,-0.31,-4.22,4.69
1.9932653903961182,-1.66,-0.34,-3.88,4.23
2.0032753944396973,-1.32,-0.45,-3.13,3.42
2.01322340965271,-0.95,-0.59,-1.77,2.09
2.0238003730773926,-0.48,-0.49,0.34,0.76
2.0338685512542725,0.05,-0.02,2.47,2.47
2.0436923503875732,0.65,0.43,3.99,4.06
2.0545153617858887,1.12,0.63,5.01,5.17
2.063950300216675,1.58,0.62,5.48,5.73
2.0775482654571533,1.95,0.45,5.5,5.85
2.083890438079834,2.13,0.16,5.41,5.81
2.09368634223938,2.17,-0.2,5.33,5.75
2.1040995121002197,2.02,-0.53,5.12,5.52
2.1138224601745605,1.81,-0.76,4.7,5.09
2.124119520187378,1.64,-0.83,4.37,4.74
2.1345465183258057,1.5,-0.69,4.41,4.7
2.1446304321289062,1.45,-0.42,4.5,4.74
2.154571294784546,1.36,-0.15,4.29,4.5
2.1645843982696533,1.08,0.01,3.73,3.88
2.1789615154266357,0.57,0.02,2.85,2.9
2.184521436691284,0.08,-0.03,2.16,2.16
2.194474458694458,-0.22,0.1,2.31,2.32
2.2048733234405518,-0.39,0.4,3.07,3.12
2.2146644592285156,-0.71,0.81,4.14,4.27
2.2250335216522217,-1.52,0.97,3.94,4.33
2.23531436920166,-2.64,0.54,2.16,3.45
2.2456343173980713,-3.38,-0.22,-0.27,3.39
2.2550084590911865,-3.85,-0.9,-2.58,4.72
2.2797703742980957,-4.18,-1.25,-4.19,6.04
2.282057523727417,-4.35,-1.45,-4.98,6.76
2.2849013805389404,-4.59,-1.75,-5.34,7.25
2.295140504837036,-4.63,-1.75,-6.05,7.81
2.3057873249053955,-4.71,-1.74,-6.94,8.56
2.315946340560913,-4.6,-1.79,-7.25,8.77
2.3256895542144775,-3.95,-1.5,-6.71,7.92
2.336000442504883,-3.01,-0.83,-5.83,6.61
2.346071481704712,-2.24,-0.04,-4.93,5.41
2.355647325515747,-1.54,0.62,-4.22,4.53
2.3794524669647217,-0.99,0.88,-3.77,3.99
2.3809945583343506,-0.61,0.76,-3.29,3.43
2.3857462406158447,-0.24,0.55,-2.68,2.74
2.39601731300354,0.07,0.35,-1.99,2.02
2.4062535762786865,0.25,0.0,-1.37,1.39
2.4162843227386475,0.19,-0.56,-0.91,1.08
2.4263832569122314,0.07,-1.15,-0.69,1.34
2.4368512630462646,-0.06,-1.57,-0.48,1.64
2.452162504196167,-0.02,-1.74,-0.24,1.75
2.4564244747161865,0.07,-1.74,0.01,1.74
2.4766674041748047,0.18,-1.57,0.44,1.64
2.478236436843872,0.31,-1.29,1.04,1.68
2.4868223667144775,0.55,-0.9,2.17,2.41
2.4967763423919678,1.15,-0.21,4.37,4.52
2.5072195529937744,1.79,0.55,6.41,6.67
2.516963243484497,2.22,0.9,7.8,8.15
2.527207374572754,2.53,0.84,8.59,8.99
2.5374574661254883,2.41,0.51,7.92,8.29
2.5534284114837646,1.9,0.19,6.71,6.97
2.557211399078369,1.34,0.03,6.04,6.18
2.577427387237549,0.78,0.03,5.38,5.43
2.5788323879241943,0.6,0.15,5.55,5.58
2.5874884128570557,0.57,0.47,5.92,5.96
2.5974953174591064,0.2,0.5,4.96,4.98
2.6076323986053467,-0.36,0.03,3.34,3.35
2.6177732944488525,-0.66,-0.31,1.98,2.11
2.6279022693634033,-0.99,-0.42,0.56,1.21
2.6382133960723877,-1.42,-0.63,-0.57,1.65
2.6550405025482178,-1.73,-0.94,-1.42,2.42
2.65813946723938,-1.95,-1.18,-2.13,3.11
2.678154468536377,-2.13,-1.3,-2.81,3.75
2.6796634197235107,-2.21,-1.3,-3.25,4.13
2.6881654262542725,-2.15,-1.07,-3.2,4.0
2.6989243030548096,-2.17,-0.69,-3.5,4.17
2.7083895206451416,-2.31,-0.49,-3.93,4.58
2.7185165882110596,-2.47,-0.43,-4.28,4.96
2.7286834716796875,-2.51,-0.39,-4.59,5.24
2.738952398300171,-2.45,-0.35,-4.83,5.42
2.7546212673187256,-2.51,-0.35,-4.99,5.59
2.759059429168701,-2.52,-0.38,-5.16,5.75
2.7775163650512695,-2.49,-0.48,-5.31,5.88
2.7789924144744873,-2.53,-0.68,-5.51,6.1
2.789374589920044,-2.57,-0.95,-5.82,6.43
2.798962354660034,-2.53,-1.21,-5.94,6.56
2.8092854022979736,-2.36,-1.24,-5.63,6.22
2.819551467895508,-2.07,-1.12,-4.86,5.39
2.8294994831085205,-1.76,-0.9,-3.69,4.18
2.8397164344787598,-1.29,-0.69,-2.05,2.51
2.8609983921051025,-0.73,-0.44,0.0,0.85
2.8624584674835205,0.11,-0.02,2.75,2.75
2.8697445392608643,1.16,0.64,6.11,6.25
2.8794453144073486,1.91,0.87,9.21,9.44
2.8899905681610107,2.22,0.64,11.15,11.38
2.9001524448394775,2.39,0.37,11.49,11.74
2.9100992679595947,2.46,0.25,10.65,10.93
2.9203364849090576,2.19,0.19,9.26,9.51
2.930689573287964,1.48,0.01,7.79,7.92
2.940894365310669,0.67,-0.06,6.75,6.78
2.9520554542541504,-0.02,0.06,5.94,5.94
2.960350275039673,-0.45,0.24,5.47,5.49
2.977586507797241,-0.61,0.58,5.1,5.16
2.9802463054656982,-0.66,0.79,4.34,4.46
2.990577459335327,-0.88,0.66,3.17,3.35
3.0006093978881836,-1.28,0.28,1.8,2.22
3.0107734203338623,-1.68,-0.12,0.58,1.78
3.021066427230835,-2.06,-0.45,-0.55,2.17
3.0323214530944824,-2.53,-0.71,-1.59,3.07
3.041050434112549,-3.04,-0.96,-2.57,4.09
3.0515053272247314,-3.45,-1.12,-3.48,5.02
3.0613205432891846,-3.71,-1.18,-4.28,5.78
3.0764994621276855,-3.85,-1.18,-5.01,6.42
3.0810043811798096,-3.84,-1.09,-5.73,6.98
3.0913822650909424,-3.74,-0.92,-6.37,7.44
3.1015355587005615,-3.63,-0.73,-6.86,7.79
3.1111905574798584,-3.56,-0.65,-7.21,8.06
3.1217715740203857,-3.39,-0.67,-7.3,8.07
3.1323063373565674,-3.3,-0.76,-7.22,7.97
3.142273426055908,-3.15,-0.81,-7.05,7.76
3.1534414291381836,-2.81,-0.75,-6.67,7.27
3.1618783473968506,-2.48,-0.82,-6.17,6.7
3.177152395248413,-2.15,-0.9,-5.49,5.96
3.1817543506622314,-1.71,-0.89,-4.49,4.88
3.1918094158172607,-1.26,-0.79,-3.25,3.57
3.202146291732788,-0.8,-0.66,-1.65,1.94
3.2118422985076904,-0.27,-0.5,0.4,0.69
3.2223212718963623,0.32,-0.24,2.92,2.94
3.232569456100464,0.95,0.06,6.04,6.11
3.2469654083251953,1.47,0.09,9.15,9.26
3.2615764141082764,1.93,-0.06,11.48,11.64
3.2630534172058105,2.38,-0.13,12.52,12.74
3.2721292972564697,2.64,-0.24,11.77,12.06
3.282562494277954,2.36,-0.49,10.1,10.38
3.2925844192504883,1.97,-0.65,8.39,8.64
3.302823305130005,1.46,-0.62,6.78,6.96
3.312929391860962,0.78,-0.42,5.5,5.57
3.3232834339141846,0.26,-0.2,4.58,4.59
3.3333873748779297,-0.19,-0.01,3.67,3.67
3.362300395965576,-0.66,0.05,2.58,2.66
3.364464521408081,-1.1,0.0,1.49,1.85
3.365962266921997,-1.43,-0.11,0.46,1.5
3.3729193210601807,-1.78,-0.23,-0.56,1.88
3.383293390274048,-2.08,-0.38,-1.51,2.59
3.393329381942749,-2.25,-0.45,-2.41,3.32
3.4035823345184326,-2.33,-0.48,-3.32,4.08
3.4138095378875732,-2.38,-0.5,-4.13,4.79
3.4239165782928467,-2.47,-0.51,-4.85,5.46
3.434128522872925,-2.63,-0.5,-5.41,6.03
3.4611153602600098,-2.85,-0.43,-5.82,6.49
3.462695360183716,-3.18,-0.33,-6.03,6.82
3.465184450149536,-3.51,-0.28,-6.19,7.12
3.474074363708496,-3.66,-0.26,-6.44,7.41
3.4841434955596924,-3.73,-0.19,-6.63,7.6
3.4942305088043213,-3.79,-0.17,-6.84,7.82
3.5044243335723877,-3.63,0.0,-6.81,7.71
3.5151255130767822,-3.28,0.02,-6.3,7.1
3.524935483932495,-2.94,-0.14,-5.28,6.04
3.5350613594055176,-2.48,-0.37,-3.77,4.52
3.551889419555664,-1.91,-0.72,-2.01,2.86
3.5547564029693604,-1.37,-1.02,0.29,1.73
3.5772764682769775,-0.48,-1.1,3.23,3.44
3.578871488571167,0.73,-0.88,6.6,6.69
3.5848095417022705,2.06,-0.59,9.97,10.19
3.5953452587127686,3.17,-0.61,12.83,13.22
3.605191469192505,3.63,-0.95,13.92,14.41
3.615161418914795,3.47,-1.29,12.83,13.35
3.6249914169311523,3.23,-1.34,10.76,11.31
3.635545492172241,2.77,-1.24,8.33,8.86
3.6451423168182373,2.09,-1.01,6.56,6.95
3.6594903469085693,1.45,-0.63,5.81,6.02
3.6651504039764404,0.79,-0.31,5.14,5.2
3.675509452819824,0.21,-0.16,4.22,4.22
3.6855883598327637,-0.23,-0.16,3.18,3.19
3.695498466491699,-0.69,-0.28,1.89,2.03
3.7060935497283936,-1.27,-0.56,0.44,1.45
3.7159855365753174,-1.87,-0.82,-0.84,2.2
3.7260243892669678,-2.36,-1.0,-1.82,3.14
3.7363624572753906,-2.81,-1.05,-2.81,4.11
3.746178388595581,-3.26,-1.03,-3.81,5.11
3.760932445526123,-3.74,-0.85,-4.8,6.14
3.7659285068511963,-4.14,-0.58,-5.74,7.1
3.776263475418091,-4.34,-0.29,-6.39,7.72
3.7864315509796143,-4.34,-0.11,-6.72,8.0
3.7963974475860596,-4.09,-0.08,-6.8,7.93
3.8067615032196045,-3.63,-0.15,-6.95,7.84
3.816908359527588,-4.34,-0.26,-6.75,8.02
3.826899290084839,-4.8,-0.26,-6.79,8.31
3.8371574878692627,-4.4,-0.29,-6.57,7.91
3.8602182865142822,-3.88,-0.46,-6.27,7.38
3.8618433475494385,-3.85,-0.6,-6.2,7.32
3.8665883541107178,-3.9,-0.55,-5.73,6.95
3.8768885135650635,-3.37,-0.44,-4.59,5.71
3.887211561203003,-2.66,-0.39,-3.02,4.04
3.8977134227752686,-2.21,-0.59,-0.94,2.47
3.907290458679199,-1.54,-0.76,1.6,2.34
3.9177894592285156,-0.49,-0.63,4.77,4.83
3.927551507949829,0.91,-0.26,8.09,8.14
3.9379913806915283,2.24,0.14,10.96,11.18
3.9620583057403564,3.19,0.14,12.8,13.19
3.9644525051116943,3.59,-0.25,13.02,13.5
3.9674243927001953,3.54,-0.68,11.82,12.35
3.9775824546813965,3.27,-0.96,9.82,10.39
3.987945318222046,2.67,-1.1,7.64,8.16
3.9979045391082764,1.79,-1.12,5.74,6.11
4.008206367492676,0.91,-1.08,4.18,4.41
4.0184314250946045,0.24,-0.93,3.13,3.27
4.028211355209351,-0.06,-0.7,2.52,2.61
4.043014287948608,-0.34,-0.51,1.83,1.92
4.06151556968689,-0.68,-0.41,1.24,1.47
4.0639283657073975,-0.82,-0.24,0.95,1.27
4.068169355392456,-0.83,0.03,0.47,0.95
4.0784642696380615,-1.03,0.14,-0.32,1.08
4.088623285293579,-1.46,0.01,-1.34,1.98
4.09893536567688,-1.86,-0.13,-2.41,3.04
4.108825445175171,-2.24,-0.2,-3.48,4.14
4.119075536727905,-2.67,-0.27,-4.52,5.25
4.129074335098267,-3.07,-0.34,-5.39,6.21
4.143351316452026,-3.41,-0.38,-6.17,7.05
4.160391569137573,-3.6,-0.39,-6.74,7.65
4.161879301071167,-3.91,-0.43,-7.25,8.24
4.169154405593872,-3.83,-0.47,-7.68,8.59
4.17901349067688,-3.78,-0.48,-7.73,8.61
4.189253568649292,-3.72,-0.52,-7.36,8.26
4.199407339096069,-3.16,-0.58,-6.55,7.29
4.2093212604522705,-2.56,-0.54,-5.38,5.98
4.2199554443359375,-2.09,-0.6,-4.06,4.6
4.231213331222534,-1.51,-0.74,-2.34,2.88
4.24364447593689,-0.61,-0.84,-0.26,1.07
4.2577903270721436,0.19,-0.84,2.27,2.42
4.259540319442749,1.05,-0.74,5.38,5.53
4.269888401031494,1.95,-0.63,8.5,8.74
4.280576467514038,2.52,-0.6,10.64,10.95
4.289995431900024,3.01,-0.5,11.59,11.98
4.300275564193726,3.31,-0.37,11.13,11.61
4.3101465702056885,3.21,-0.24,10.0,10.5
4.320667505264282,2.85,0.03,8.51,8.97
4.331267356872559,2.02,0.2,6.71,7.01
4.345169305801392,1.22,0.18,5.25,5.39
4.362204313278198,0.58,0.13,4.16,4.2
4.364361524581909,-0.08,-0.05,3.02,3.02
4.370258569717407,-0.77,-0.37,1.78,1.97
4.380358457565308,-1.21,-0.64,0.64,1.51
4.390818357467651,-1.46,-0.79,-0.34,1.69
4.400978326797485,-1.68,-0.87,-1.25,2.26
4.41077446937561,-1.89,-0.9,-2.18,3.02
4.421381235122681,-2.03,-0.83,-3.08,3.78
4.431462526321411,-2.16,-0.7,-3.92,4.53
4.440959453582764,-2.37,-0.6,-4.58,5.19
4.460889577865601,-2.67,-0.56,-5.13,5.81
4.462998390197754,-3.08,-0.47,-5.51,6.32
4.471424341201782,-3.43,-0.4,-5.88,6.81
4.481415510177612,-3.76,-0.43,-6.47,7.49
4.491436243057251,-4.03,-0.52,-7.17,8.24
4.501697301864624,-4.23,-0.77,-7.94,9.02
4.5118935108184814,-4.26,-1.04,-8.27,9.36
4.522088289260864,-4.04,-1.06,-7.92,8.95
4.532285451889038,-3.59,-0.93,-6.73,7.68
4.542180299758911,-2.72,-0.6,-4.8,5.54
4.56039834022522,-1.79,-0.24,-2.58,3.14
4.561905384063721,-0.94,0.08,-0.05,0.94
4.5721275806427,-0.02,0.49,2.92,2.96
4.582349538803101,0.76,0.95,6.17,6.28
4.592121362686157,1.17,0.93,9.65,9.76
4.602543354034424,1.17,0.44,12.36,12.42
4.613865375518799,1.24,0.04,13.41,13.46
4.6228883266448975,1.52,-0.13,12.92,13.0
4.632968425750732,1.48,-0.17,11.26,11.35
4.642797470092773,1.0,-0.08,9.16,9.21
4.659564256668091,0.57,0.18,7.4,7.42
4.663418531417847,0.08,0.5,6.13,6.15
4.67293643951416,-0.43,0.66,4.99,5.05
4.683092355728149,-0.87,0.55,3.78,3.91
4.692756414413452,-1.23,0.32,2.54,2.84
4.703356504440308,-1.6,0.12,1.3,2.06
4.7141454219818115,-1.86,-0.1,0.35,1.89
4.723382234573364,-2.07,-0.23,-0.52,2.14
4.734192371368408,-2.53,-0.29,-1.46,2.93
4.743457555770874,-2.98,-0.3,-2.4,3.83
4.759546518325806,-3.34,-0.32,-3.33,4.72
4.763201475143433,-3.68,-0.39,-4.13,5.54
4.773560285568237,-3.84,-0.41,-4.99,6.3
4.783799409866333,-4.03,-0.47,-5.86,7.12
4.793495416641235,-4.23,-0.51,-6.51,7.78
4.80422043800354,-4.39,-0.5,-7.0,8.27
4.814463376998901,-4.29,-0.3,-7.26,8.43
4.824559450149536,-4.34,-0.2,-7.43,8.6
4.841163396835327,-4.23,-0.34,-7.7,8.79
4.843956470489502,-3.71,-0.27,-7.51,8.38
4.858032464981079,-3.37,-0.29,-7.29,8.03
4.864089250564575,-3.26,-0.52,-6.87,7.62
4.874472379684448,-3.14,-0.91,-6.01,6.84
4.884587526321411,-2.5,-1.39,-4.31,5.17
4.894351243972778,-2.0,-1.73,-2.71,3.78
4.9045445919036865,-1.76,-2.02,-0.5,2.72
4.914965391159058,-0.78,-2.45,2.54,3.61
4.9249255657196045,0.55,-2.82,6.42,7.03
4.939788579940796,2.35,-2.71,10.31,10.91
4.945263385772705,3.93,-2.16,13.62,14.33
4.959993362426758,4.9,-1.65,15.3,16.15
4.9648964405059814,5.25,-1.28,14.7,15.66
4.975086450576782,5.21,-0.98,11.95,13.07
4.98535943031311,4.43,-0.61,8.56,9.65
4.995117425918579,3.38,-0.05,6.38,7.22
5.0056092739105225,2.32,0.35,5.6,6.07
5.015642404556274,1.12,0.15,5.11,5.23
5.025614500045776,0.23,-0.39,4.27,4.29
5.04173731803894,-0.37,-0.75,3.15,3.25
5.060006380081177,-0.89,-0.85,1.77,2.15
5.062293291091919,-1.4,-0.95,0.38,1.73
5.065537452697754,-1.95,-1.07,-0.92,2.4
5.075688362121582,-2.48,-1.07,-2.11,3.42
5.085827589035034,-2.83,-0.91,-3.15,4.33
5.095637559890747,-3.0,-0.59,-4.06,5.08
5.106111288070679,-3.01,-0.21,-4.58,5.48
5.116274356842041,-3.23,0.04,-4.88,5.85
5.126113414764404,-3.5,0.2,-5.02,6.12
5.141023397445679,-3.54,0.2,-5.43,6.48
5.158245325088501,-3.84,0.08,-5.75,6.91
5.159707307815552,-4.17,0.0,-6.0,7.3
5.166314363479614,-4.33,-0.03,-6.24,7.59
5.176651239395142,-4.38,-0.04,-6.37,7.73
5.186771392822266,-4.36,-0.05,-6.5,7.82
5.196849584579468,-4.27,-0.11,-6.48,7.76
5.206841468811035,-4.19,-0.22,-6.29,7.56
5.217296361923218,-4.15,-0.28,-5.94,7.25
5.227109432220459,-4.0,-0.38,-5.46,6.77
5.23686146736145,-3.76,-0.62,-4.52,5.91
5.259953260421753,-3.44,-0.91,-3.15,4.75
5.262019395828247,-2.94,-1.21,-1.55,3.53
5.266964435577393,-2.18,-1.43,0.58,2.67
5.277306318283081,-1.08,-1.46,3.55,3.98
5.28717827796936,0.38,-1.21,7.07,7.18
5.297731399536133,2.35,-0.83,11.02,11.29
5.3078224658966064,4.5,-0.72,14.24,14.95
5.318247556686401,5.64,-1.05,15.17,16.21
5.328320264816284,5.62,-1.69,14.32,15.47
5.337573289871216,4.97,-2.25,12.13,13.3
5.360985517501831,3.95,-2.46,9.4,10.48
5.363138437271118,2.7,-2.28,7.07,7.9
5.367910385131836,1.44,-1.74,5.43,5.88
5.378160238265991,0.46,-1.12,4.34,4.5
5.388048410415649,-0.24,-0.61,3.68,3.73
5.398237466812134,-0.71,-0.18,3.14,3.22
5.408349275588989,-1.02,0.14,2.36,2.57
5.418564558029175,-1.35,0.37,1.3,1.91
5.430029392242432,-1.68,0.53,0.26,1.78
5.438497304916382,-2.12,0.51,-0.76,2.3
5.459650278091431,-2.72,0.3,-1.7,3.22
5.461105585098267,-3.39,-0.09,-2.68,4.32
5.468438386917114,-3.94,-0.5,-3.59,5.35
5.479321241378784,-4.14,-0.62,-4.42,6.08
5.48896336555481,-4.14,-0.49,-5.23,6.68
5.499142408370972,-4.31,-0.38,-5.89,7.3
5.509079456329346,-4.69,-0.36,-6.49,8.01
5.519486427307129,-4.95,-0.4,-6.92,8.51
5.529810428619385,-5.11,-0.38,-7.23,8.86
5.539198398590088,-5.3,-0.34,-7.48,9.17
5.558109521865845,-5.0,-0.39,-7.57,9.08
5.559575319290161,-4.58,-0.68,-7.39,8.72
5.56917142868042,-4.12,-0.71,-7.06,8.2
5.5794384479522705,-3.64,-0.79,-6.74,7.7
5.589709520339966,-3.42,-1.1,-6.41,7.34
5.599703550338745,-3.19,-1.55,-5.67,6.68
5.609739542007446,-2.6,-2.17,-4.03,5.26
5.620389461517334,-1.34,-2.64,-1.48,3.3
5.634310483932495,-0.92,-2.6,1.68,3.22
5.639826536178589,1.05,-1.85,6.13,6.48
5.658498525619507,3.23,-0.62,10.21,10.72
5.660256385803223,4.34,-0.18,13.38,14.06
5.6703712940216064,4.95,-0.78,15.35,16.14
5.680265426635742,4.94,-1.42,15.05,15.9
5.690449476242065,4.56,-1.57,12.76,13.64
5.7005674839019775,3.73,-1.51,9.85,10.64
5.710463285446167,2.36,-1.36,7.11,7.61
5.720844507217407,0.98,-0.98,5.28,5.45
5.735071420669556,-0.06,-0.31,4.36,4.37
5.740966558456421,-0.67,0.37,3.55,3.63
5.7584545612335205,-1.02,0.68,2.85,3.1
5.760600328445435,-1.12,0.68,2.45,2.77
5.7710182666778564,-1.09,0.6,1.77,2.16
5.781142473220825,-1.16,0.39,0.84,1.48
5.791165590286255,-1.38,-0.01,-0.16,1.38
5.801583528518677,-1.67,-0.43,-1.17,2.08
5.813016414642334,-2.03,-0.72,-2.03,2.95
5.821545362472534,-2.5,-0.83,-2.52,3.64
5.836337327957153,-2.88,-0.68,-2.96,4.18
5.841629266738892,-3.16,-0.47,-3.56,4.78
5.858168363571167,-3.52,-0.38,-4.28,5.55
5.861488580703735,-3.86,-0.28,-5.03,6.34
5.872239351272583,-4.16,-0.14,-5.83,7.16
5.881936311721802,-4.44,0.04,-6.59,7.94
5.891758441925049,-4.74,0.19,-7.21,8.63
5.902276277542114,-4.8,0.22,-7.63,9.01
5.912703275680542,-4.69,0.07,-7.66,8.98
5.922226428985596,-4.36,-0.15,-7.3,8.5
5.936770439147949,-3.88,-0.43,-6.66,7.71
5.942497491836548,-3.37,-0.74,-5.88,6.81
5.958251237869263,-2.81,-1.1,-4.86,5.72
5.962045431137085,-2.35,-1.57,-3.55,4.53
5.972593545913696,-2.05,-2.0,-1.82,3.39
5.982694387435913,-1.3,-2.14,0.88,2.65
5.992498397827148,0.24,-1.85,4.62,4.98
6.002776384353638,2.11,-1.18,8.58,8.91
6.0131895542144775,3.72,-0.63,12.07,12.64
6.023543357849121,4.89,-0.53,14.43,15.24
6.032992362976074,5.4,-0.71,14.96,15.92
6.042928457260132,5.07,-1.07,13.37,14.33
6.058263540267944,4.24,-1.34,10.5,11.4
6.062805414199829,3.24,-1.34,7.64,8.4
6.072809457778931,2.19,-1.03,5.65,6.14
6.083345413208008,1.26,-0.72,4.67,4.89
6.093768358230591,0.65,-0.57,4.26,4.34
6.103403329849243,0.27,-0.56,3.65,3.7
6.113632440567017,-0.14,-0.6,2.46,2.53
6.1236793994903564,-0.62,-0.76,1.15,1.51
6.1337714195251465,-1.12,-1.05,-0.15,1.54
6.143900394439697,-1.78,-1.37,-1.29,2.59
6.160319566726685,-2.64,-1.55,-2.38,3.87
6.163592576980591,-3.47,-1.48,-3.39,5.07
6.174081563949585,-4.13,-1.23,-4.42,6.17
6.184174299240112,-4.73,-0.85,-5.37,7.2
6.1952223777771,-5.27,-0.42,-6.17,8.12
6.204244375228882,-5.65,0.09,-6.77,8.81
6.214751482009888,-5.84,0.54,-7.27,9.34
6.224377393722534,-5.84,0.74,-7.55,9.57
6.23483943939209,-5.38,0.69,-7.46,9.22
6.260331392288208,-5.53,0.48,-7.17,9.06
6.262964487075806,-5.06,0.33,-6.77,8.45
6.264447450637817,-4.3,0.16,-6.22,7.56
6.274572372436523,-3.85,-0.12,-5.44,6.66
6.2848124504089355,-3.47,-0.31,-4.8,5.93
6.295245409011841,-3.56,-0.27,-4.15,5.47
6.3048412799835205,-3.17,-0.38,-3.02,4.39
6.31542444229126,-2.75,-0.47,-1.65,3.24
6.325236558914185,-2.47,-0.41,0.15,2.5
6.335092306137085,-1.78,-0.23,2.38,2.98
6.362107515335083,-0.98,-0.18,5.12,5.21
6.364264249801636,-0.11,-0.61,8.32,8.34
6.365770578384399,1.0,-1.23,11.19,11.3
6.375478506088257,2.33,-1.68,13.09,13.4
6.385700464248657,3.49,-1.98,13.48,14.06
6.395625352859497,4.03,-2.07,12.26,13.07
6.405614376068115,3.95,-2.07,10.07,11.01
6.415809392929077,3.21,-1.86,7.6,8.45
6.431297540664673,2.03,-1.32,5.46,5.97
6.43602442741394,1.09,-0.57,3.94,4.12
6.459739446640015,0.36,0.04,2.72,2.74
6.461924314498901,-0.24,0.38,1.52,1.58
6.46581244468689,-0.65,0.48,0.3,0.86
6.47575044631958,-1.05,0.46,-0.75,1.36
6.486265420913696,-1.54,0.39,-1.62,2.26
6.49620246887207,-1.98,0.35,-2.4,3.13
6.506298303604126,-2.28,0.42,-3.12,3.88
6.516562461853027,-2.5,0.51,-3.83,4.6
6.530913591384888,-2.6,0.58,-4.59,5.3
6.536681413650513,-2.73,0.62,-5.43,6.1
6.557993412017822,-2.8,0.66,-6.19,6.82
6.559458494186401,-2.78,0.53,-6.63,7.2
6.566487550735474,-2.67,0.13,-6.73,7.24
6.576951265335083,-2.48,-0.22,-6.61,7.06
6.58694052696228,-2.02,-0.44,-6.17,6.5
6.596984386444092,-1.58,-0.71,-5.51,5.77
6.606935262680054,-1.26,-1.12,-4.44,4.74
6.617553472518921,-0.74,-1.58,-2.91,3.39
6.633399248123169,-0.11,-2.09,-1.0,2.31
6.637559413909912,0.59,-2.71,1.51,3.15
6.659378290176392,1.43,-3.13,4.04,5.3
6.661583423614502,2.42,-3.01,6.14,7.25
6.667248487472534,3.44,-2.55,7.73,8.83
6.678007364273071,4.0,-1.86,8.72,9.77
6.68785548210144,4.16,-1.03,9.14,10.09
6.697885274887085,4.21,-0.44,9.34,10.25
6.708048582077026,3.94,-0.03,8.85,9.68
6.7185564041137695,3.41,0.0,7.92,8.62
6.732974290847778,2.77,-0.29,6.68,7.23
6.738110303878784,2.07,-0.57,5.26,5.68
6.758726358413696,1.33,-0.78,4.0,4.28
6.760908365249634,0.69,-1.03,3.07,3.31
6.768041372299194,0.14,-1.13,2.3,2.56
6.778592348098755,-0.46,-1.12,1.65,2.04
6.7882983684539795,-0.96,-0.92,1.19,1.78
6.798919439315796,-1.5,-0.59,0.52,1.69
6.808498382568359,-2.3,-0.4,-0.38,2.36
6.818857431411743,-3.24,-0.33,-1.45,3.56
6.839850425720215,-4.2,-0.18,-2.64,4.96
6.841291427612305,-5.03,-0.02,-3.91,6.37
6.848593473434448,-5.67,0.04,-5.22,7.7
6.8585875034332275,-5.9,0.0,-6.31,8.63
6.869244337081909,-5.82,-0.07,-7.14,9.21
6.879348516464233,-5.61,-0.24,-7.71,9.53
6.889076471328735,-5.38,-0.48,-8.03,9.67
6.899352312088013,-5.1,-0.68,-8.11,9.6
6.909614324569702,-4.69,-0.91,-7.98,9.3
6.91974949836731,-4.26,-1.14,-7.64,8.82
6.92960524559021,-3.85,-1.29,-7.2,8.26
6.9398033618927,-3.52,-1.39,-6.71,7.7
6.95872950553894,-3.24,-1.45,-6.17,7.11
6.960897445678711,-3.03,-1.44,-5.49,6.43
6.9695422649383545,-2.76,-1.42,-4.63,5.57
6.97992730140686,-2.32,-1.29,-3.38,4.29
6.989832401275635,-1.82,-1.03,-1.63,2.65
7.000155448913574,-1.31,-0.7,0.8,1.68
7.0114805698394775,-0.68,-0.25,3.95,4.01
7.0206544399261475,0.14,0.18,7.54,7.54
7.030977487564087,0.81,0.23,10.83,10.86
7.040382385253906,1.29,-0.15,13.04,13.1
7.058771371841431,1.89,-0.62,13.64,13.78
7.060905456542969,2.28,-0.92,12.91,13.14
7.070211410522461,2.33,-0.96,11.25,11.52
7.08075737953186,2.16,-0.79,9.23,9.51
7.09045147895813,1.66,-0.64,7.51,7.71
7.100889444351196,1.01,-0.47,6.23,6.32
7.111010313034058,0.59,-0.3,5.37,5.41
7.120849370956421,0.27,-0.21,4.55,4.56
7.130930423736572,0.02,-0.24,3.6,3.6
7.140934467315674,-0.02,-0.33,2.66,2.68
7.157506465911865,0.05,-0.41,1.68,1.73
7.160917520523071,0.0,-0.49,0.55,0.73
7.170976400375366,-0.23,-0.6,-0.61,0.88
7.1813905239105225,-0.61,-0.74,-1.73,1.97
7.191335439682007,-1.05,-0.85,-2.78,3.09
7.201699495315552,-1.51,-0.82,-3.8,4.17
7.211507558822632,-1.96,-0.67,-4.81,5.23
7.2264015674591064,-2.37,-0.46,-5.73,6.21
7.243169546127319,-2.86,-0.2,-6.44,7.04
7.24466347694397,-3.33,0.05,-6.99,7.74
7.25155234336853,-3.66,0.25,-7.36,8.22
7.2616355419158936,-3.79,0.3,-7.53,8.43
7.272291421890259,-3.63,0.31,-7.41,8.25
7.282142400741577,-3.38,0.25,-7.0,7.77
7.292146444320679,-3.08,0.15,-6.35,7.05
7.302551507949829,-2.62,-0.03,-5.41,6.01
7.312716245651245,-2.2,-0.26,-4.14,4.69
7.344218492507935,-1.88,-0.44,-2.62,3.25
7.345868349075317,-1.55,-0.55,-0.8,1.82
7.34731125831604,-1.15,-0.6,1.41,1.91
7.352316379547119,-0.75,-0.63,3.69,3.81
7.362744569778442,-0.35,-0.66,5.89,5.93
7.372854471206665,0.15,-0.79,8.02,8.06
7.383491277694702,0.84,-1.06,9.83,9.92
7.39478325843811,1.61,-1.05,10.78,10.95
7.40334153175354,2.23,-0.75,10.97,11.21
7.4134674072265625,2.45,-0.32,10.17,10.46
7.446014404296875,2.23,-0.2,8.56,8.84
7.4474804401397705,1.84,-0.14,7.26,7.49
7.44892954826355,1.59,0.16,6.25,6.45
7.453050374984741,1.19,0.38,5.29,5.43
7.463194370269775,0.77,0.38,4.32,4.4
7.4735143184661865,0.34,0.16,3.08,3.1
7.4838902950286865,-0.29,-0.12,1.68,1.7
7.494038343429565,-1.1,-0.51,0.31,1.25
7.503801584243774,-1.9,-0.87,-1.11,2.36
7.514296293258667,-2.81,-1.13,-2.64,4.01
7.529967546463013,-3.74,-1.21,-4.25,5.78
7.5339624881744385,-4.32,-1.17,-5.65,7.2
7.559965372085571,-4.36,-1.01,-6.81,8.14
7.562126398086548,-4.19,-0.82,-7.67,8.77
7.563824415206909,-4.03,-0.78,-8.19,9.16
7.573833465576172,-3.67,-0.79,-8.38,9.18
7.584276437759399,-3.33,-0.83,-8.55,9.21
7.594532251358032,-3.19,-1.08,-8.62,9.25
7.604404449462891,-3.02,-1.39,-8.44,9.07
7.614789247512817,-2.77,-1.55,-7.97,8.57
7.624481439590454,-2.56,-1.66,-7.39,7.99
7.64122748374939,-2.28,-1.74,-6.55,7.15
7.644342422485352,-2.0,-1.73,-5.28,5.9
7.654719591140747,-1.82,-1.57,-3.69,4.4
7.6646082401275635,-1.74,-1.33,-1.51,2.66
7.675149440765381,-1.79,-0.96,1.4,2.46
7.685153245925903,-1.46,-0.45,5.16,5.38
7.695200443267822,-0.64,0.16,9.36,9.38
7.705479383468628,0.26,0.77,13.25,13.27
7.716069459915161,1.46,1.31,15.74,15.86
7.725774526596069,2.24,1.49,15.67,15.89
7.742651462554932,2.61,1.22,13.84,14.13
7.745171308517456,2.56,0.93,11.26,11.58
7.755144357681274,1.9,0.7,8.63,8.86
7.765753507614136,0.97,0.49,6.77,6.85
7.776928424835205,0.27,0.37,5.61,5.62
7.786077260971069,-0.19,0.27,4.5,4.51
7.7959535121917725,-0.61,0.07,2.92,2.98
7.806370496749878,-1.02,-0.27,1.05,1.48
7.8165154457092285,-1.47,-0.61,-0.82,1.79
7.843039274215698,-1.88,-0.86,-2.49,3.23
7.845506429672241,-2.25,-1.02,-3.93,4.64
7.84698748588562,-2.61,-1.16,-5.1,5.84
7.855903387069702,-2.88,-1.27,-6.06,6.82
7.866377353668213,-2.99,-1.27,-6.77,7.5
7.876708269119263,-3.03,-1.23,-7.23,7.93
7.886655569076538,-2.92,-1.22,-7.44,8.08
7.896740436553955,-2.7,-1.27,-7.56,8.12
7.906912565231323,-2.55,-1.42,-7.66,8.19
7.917199373245239,-2.26,-1.66,-7.52,8.02
7.941978454589844,-2.14,-1.75,-7.21,7.72
7.943500280380249,-2.17,-1.85,-6.87,7.43
7.946742296218872,-2.07,-1.98,-6.15,6.78
7.956695318222046,-1.89,-2.09,-5.07,5.8
7.9672534465789795,-1.59,-2.05,-3.7,4.51
7.977386236190796,-1.09,-1.69,-2.16,2.95
7.987325429916382,-0.39,-1.09,-0.48,1.25
7.997554540634155,0.24,-0.43,1.36,1.44
8.007697343826294,0.74,0.23,3.51,3.59
8.02203631401062,1.08,0.78,5.57,5.72
8.040241479873657,1.21,1.18,7.29,7.48
8.041677236557007,1.2,1.43,8.74,8.93
8.047541379928589,1.12,1.49,9.68,9.85
8.057907342910767,0.88,1.35,9.75,9.88
8.067840337753296,0.67,1.1,9.1,9.19
8.077921390533447,0.53,0.84,8.24,8.29
8.087992429733276,0.35,0.79,7.64,7.68
8.09815239906311,0.05,0.79,6.86,6.9
8.10859751701355,-0.24,0.74,5.71,5.76
8.122862577438354,-0.59,0.53,4.2,4.27
8.14173436164856,-0.98,0.26,2.88,3.05
8.14394736289978,-1.17,0.05,1.78,2.13
8.148281335830688,-1.37,-0.11,0.81,1.59
8.158629417419434,-1.64,-0.21,0.01,1.65
8.16875147819519,-1.96,-0.31,-0.51,2.04
8.178709268569946,-2.2,-0.3,-1.06,2.46
8.188867330551147,-2.29,-0.28,-1.92,3.0
8.199316263198853,-2.64,-0.47,-2.92,3.96
8.210429430007935,-3.13,-0.79,-3.71,4.91
8.22365140914917,-3.31,-0.92,-4.43,5.6
8.24079442024231,-3.23,-0.88,-5.09,6.09
8.243038415908813,-3.0,-0.8,-5.54,6.35
8.24896240234375,-3.22,-0.83,-5.92,6.78
8.258858442306519,-3.4,-0.83,-6.2,7.11
8.269725561141968,-2.75,-0.8,-6.52,7.12
8.279407262802124,-2.38,-0.99,-6.59,7.07
8.28944444656372,-2.19,-1.17,-6.48,6.93
8.29978346824646,-1.86,-1.26,-6.16,6.55
8.310230493545532,-1.42,-1.35,-5.57,5.9
8.32416033744812,-1.08,-1.46,-4.84,5.16
8.340120553970337,-0.75,-1.58,-3.88,4.25
8.342210531234741,-0.49,-1.65,-2.63,3.14
8.349833250045776,-0.2,-1.66,-1.07,1.98
8.35970425605774,0.26,-1.51,1.04,1.85
8.370325326919556,0.94,-1.33,3.8,4.13
8.380362272262573,1.68,-0.9,6.61,6.87
8.390231370925903,2.36,-0.19,8.91,9.21
8.401064395904541,2.73,0.52,10.45,10.81
8.410849332809448,2.71,1.12,10.92,11.3
8.421090364456177,2.09,1.52,10.23,10.55
8.442444562911987,1.2,1.55,9.0,9.21
8.444572448730469,0.45,1.46,7.47,7.62
8.450381517410278,-0.09,1.28,5.96,6.09
8.461402416229248,-0.42,0.99,4.81,4.92
8.471006393432617,-0.56,0.64,3.92,4.01
8.481160402297974,-0.57,0.36,2.99,3.06
8.490999460220337,-0.66,0.04,1.91,2.02
8.501596450805664,-0.84,-0.33,0.75,1.17
8.51159930229187,-1.03,-0.61,-0.25,1.22
8.521889448165894,-1.28,-0.8,-1.27,1.97
8.542644262313843,-1.61,-0.92,-2.23,2.9
8.544883489608765,-1.84,-0.98,-3.12,3.75
8.551210403442383,-1.95,-0.93,-3.94,4.49
8.561593294143677,-2.06,-0.88,-4.74,5.24
8.571687459945679,-2.26,-0.89,-5.48,5.99
8.582054376602173,-2.41,-0.92,-6.06,6.58
8.592863321304321,-2.44,-0.91,-6.4,6.9
8.602136373519897,-2.35,-0.94,-6.51,6.98
8.612133264541626,-2.22,-1.05,-6.34,6.79
8.622584581375122,-2.03,-1.11,-5.92,6.35
8.641398429870605,-1.75,-1.12,-5.49,5.87
8.642855405807495,-1.45,-1.15,-5.04,5.36
8.651846408843994,-1.06,-1.15,-4.47,4.73
8.661985397338867,-0.72,-1.13,-3.86,4.08
8.672446489334106,-0.53,-1.22,-2.98,3.26
8.6826753616333,-0.35,-1.2,-1.79,2.18
8.692856550216675,-0.06,-1.06,-0.31,1.1
8.702689409255981,0.32,-0.84,1.66,1.88
8.713285446166992,0.84,-0.57,3.97,4.09
8.723149538040161,1.36,-0.1,6.18,6.32
8.740929365158081,1.65,0.41,8.0,8.17
8.742905378341675,1.75,0.92,9.22,9.42
8.75264048576355,1.51,1.39,9.53,9.74
8.762685537338257,1.08,1.66,9.06,9.27
8.773458242416382,0.63,1.78,8.01,8.22
8.783441305160522,0.19,1.72,6.94,7.15
8.793346405029297,-0.21,1.54,6.29,6.47
8.803563356399536,-0.45,1.39,5.69,5.87
8.817625284194946,-0.78,1.04,4.76,4.93
8.823803424835205,-1.13,0.63,3.74,3.95
8.840839385986328,-1.28,0.49,2.55,2.89
8.84317946434021,-1.56,0.24,1.35,2.07
8.853338479995728,-2.04,-0.21,0.17,2.05
8.86345648765564,-2.37,-0.65,-0.67,2.54
8.874104261398315,-2.41,-0.84,-1.27,2.85
8.883867502212524,-2.54,-0.92,-2.1,3.42
8.894105434417725,-2.76,-1.03,-2.98,4.19
8.904008388519287,-3.05,-1.12,-4.01,5.16
8.917663335800171,-3.36,-1.14,-5.09,6.2
8.924438238143921,-3.69,-1.17,-5.94,7.09
8.942476511001587,-3.8,-1.14,-6.37,7.5
8.943988561630249,-3.64,-1.08,-6.54,7.56
8.954146385192871,-3.4,-1.06,-6.64,7.53
8.964561462402344,-3.16,-1.05,-6.84,7.6
8.975868463516235,-2.97,-1.14,-6.92,7.61
8.984772443771362,-2.72,-1.33,-6.87,7.5
8.994771242141724,-2.58,-1.56,-6.73,7.37
9.004719495773315,-2.39,-1.8,-6.39,7.05
9.020052433013916,-2.07,-1.98,-5.75,6.42
9.040801286697388,-1.77,-2.17,-4.7,5.47
9.042276382446289,-1.32,-2.27,-3.05,4.02
9.044885396957397,-0.7,-2.15,-0.81,2.4
9.055171251296997,0.01,-1.83,1.99,2.7
9.065229415893555,1.14,-1.25,5.39,5.64
9.075822591781616,2.44,-0.32,9.1,9.42
9.085693359375,3.36,0.75,12.61,13.07
9.095812559127808,3.43,1.63,14.91,15.38
9.106229543685913,3.11,2.17,15.35,15.81
9.119689464569092,2.29,2.22,13.33,13.7
9.140540361404419,1.21,1.75,10.3,10.51
9.14261245727539,0.23,1.28,7.66,7.76
9.14553427696228,-0.62,0.99,5.96,6.07
9.155526399612427,-1.26,0.75,4.68,4.9
9.166117429733276,-1.74,0.36,3.37,3.8
9.176113367080688,-2.05,-0.11,1.94,2.82
9.186013460159302,-2.31,-0.47,0.53,2.41
9.19639539718628,-2.73,-0.67,-0.83,2.93
9.206470251083374,-3.25,-0.81,-2.12,3.96
9.216946363449097,-3.7,-0.9,-3.24,4.99
9.24135947227478,-3.85,-0.96,-4.17,5.75
9.24286150932312,-3.69,-0.97,-5.06,6.33
9.246313333511353,-3.48,-0.94,-5.79,6.82
9.256773471832275,-3.26,-0.94,-6.43,7.27
9.266839265823364,-2.94,-1.01,-6.83,7.5
9.276973485946655,-2.79,-1.12,-7.01,7.62
9.286987543106079,-3.08,-1.4,-7.26,8.0
9.297609567642212,-2.6,-1.58,-7.35,7.95
9.307332277297974,-1.89,-1.75,-7.1,7.55
9.317318439483643,-1.29,-1.98,-6.82,7.21
9.342270374298096,-0.92,-2.04,-6.3,6.68
9.343732357025146,-0.9,-1.91,-5.58,5.96
9.34702754020691,-0.58,-1.88,-4.37,4.79
9.35706353187561,-0.22,-1.87,-2.89,3.44
9.367576360702515,-0.24,-1.69,-1.06,2.0
9.377772569656372,-0.12,-1.29,1.33,1.85
9.387621402740479,0.17,-0.69,4.24,4.29
9.398166418075562,0.56,0.05,7.47,7.49
9.409262418746948,0.98,0.94,10.26,10.34
9.41832947731018,1.51,1.76,11.85,12.07
9.4416024684906,1.8,2.24,11.85,12.19
9.443628549575806,1.68,2.34,10.84,11.21
9.447741270065308,1.42,2.26,9.51,9.87
9.46027135848999,0.81,2.05,8.2,8.49
9.46827745437622,0.08,1.66,7.46,7.64
9.478545427322388,-0.3,1.38,6.81,6.95
9.488230466842651,-0.55,1.02,5.68,5.79
9.49865436553955,-0.92,0.34,4.27,4.38
9.509218454360962,-1.19,-0.37,2.94,3.19
9.518792390823364,-1.4,-0.84,1.52,2.23
9.540740251541138,-1.74,-1.23,0.1,2.13
9.542202472686768,-2.1,-1.58,-1.26,2.91
9.548463582992554,-2.4,-1.83,-2.48,3.9
9.558919429779053,-2.59,-1.98,-3.49,4.77
9.569369554519653,-2.84,-2.04,-4.42,5.63
9.579258441925049,-3.06,-2.01,-5.23,6.38
9.58889126777649,-3.11,-1.98,-5.73,6.81
9.599648237228394,-2.78,-1.83,-5.8,6.68
9.61354947090149,-2.45,-1.35,-6.06,6.67
9.619312524795532,-2.31,-1.08,-6.07,6.58
9.639946460723877,-1.95,-1.04,-5.79,6.19
9.642087459564209,-1.33,-1.15,-5.45,5.72
9.64935040473938,-0.74,-1.3,-5.12,5.33
9.65943455696106,-0.18,-1.57,-4.76,5.01
9.67000436782837,0.43,-1.89,-4.36,4.77
9.680159330368042,0.95,-2.13,-3.73,4.39
9.68978238105774,1.42,-2.31,-2.93,3.99
9.700267553329468,1.8,-2.33,-2.01,3.56
9.714705467224121,2.1,-2.17,-1.13,3.22
9.720542430877686,2.27,-1.9,-0.49,3.0
9.740235567092896,2.18,-1.56,-0.15,2.68
9.741730451583862,1.77,-1.26,-0.04,2.17
9.750019311904907,1.3,-1.05,0.0,1.67
9.760750532150269,0.95,-0.7,0.38,1.23
9.770488500595093,0.81,-0.12,0.99,1.28
9.780824422836304,0.86,0.5,1.44,1.75
9.791746377944946,1.11,0.92,1.76,2.27
9.801337480545044,1.07,0.79,2.27,2.63
9.815436363220215,0.42,0.41,2.68,2.74
9.821056365966797,-0.16,0.45,2.23,2.28
9.840380430221558,-0.71,-0.07,0.96,1.19
9.84186339378357,-6.94,0.65,0.83,7.01
9.850751399993896,-14.31,3.12,2.35,14.83
9.861215353012085,-8.1,4.52,1.83,9.45
9.871150255203247,-3.88,3.37,0.53,5.16
9.881697416305542,-0.42,2.18,1.79,2.85
9.892051458358765,2.61,2.04,4.65,5.7
9.90166449546814,2.9,1.66,3.81,5.06
9.9159574508667,1.41,0.62,1.22,1.96
9.92205023765564,0.62,-0.5,0.05,0.79
9.942337274551392,0.64,-1.04,-0.48,1.31
9.943806409835815,0.88,-0.4,-0.4,1.04
9.95144248008728,0.38,-0.35,0.35,0.62
9.962108373641968,0.24,-0.93,0.72,1.2
9.971814393997192,1.25,-1.28,0.75,1.93
9.982153415679932,1.68,-0.57,-0.42,1.82
9.992051362991333,0.77,0.26,-1.55,1.75
10.002735376358032,-0.92,1.32,-2.36,2.85
10.012453317642212,-2.37,2.17,-3.16,4.5
10.022401571273804,-2.4,2.69,-4.49,5.75
10.040133237838745,-1.52,2.8,-5.1,6.01
10.042428255081177,-0.53,2.56,-5.33,5.93
10.052262544631958,0.53,2.22,-5.64,6.08
10.062676429748535,-0.39,1.07,2.88,3.09
10.072738409042358,-1.02,0.71,4.47,4.63
10.082800388336182,2.0,0.77,1.15,2.43
10.093023538589478,0.96,0.53,3.88,4.03
10.103151559829712,0.81,0.0,6.17,6.22
10.112984418869019,1.0,0.28,9.55,9.6
10.141035318374634,0.32,0.71,11.21,11.23
10.14323353767395,-0.3,1.34,11.7,11.78
10.144724369049072,0.39,0.8,10.81,10.84
10.152945280075073,1.8,-1.04,8.84,9.08
10.16298246383667,2.75,-2.9,6.21,7.38
10.174240350723267,3.18,-3.6,3.74,6.08
10.18358826637268,3.19,-2.99,1.65,4.67
10.193699359893799,2.46,-2.35,-1.06,3.56
10.203884363174438,1.9,-2.3,-3.69,4.74
10.213898420333862,2.28,-2.28,-5.68,6.53
10.240400552749634,2.79,-2.34,-7.07,7.95
10.241885423660278,4.12,-2.17,-7.76,9.04
10.243608236312866,4.26,-2.66,-7.82,9.29
10.253689527511597,3.75,-3.27,-8.28,9.65
10.264202356338501,2.91,-3.64,-8.97,10.1
10.274392366409302,2.17,-3.18,-9.49,10.24
10.28419041633606,1.41,-2.69,-10.08,10.52
10.294431447982788,2.12,-1.85,-10.23,10.6
10.304633378982544,2.73,-1.47,-10.1,10.56
10.314746379852295,2.08,-1.68,-9.7,10.06
10.340293407440186,0.18,-1.97,-8.08,8.31
10.341781377792358,-2.01,-1.98,-6.59,7.16
10.34444546699524,-4.85,-1.51,-4.38,6.7
10.35455846786499,-4.79,-1.42,-2.63,5.64
10.364939451217651,-2.78,-2.31,0.12,3.61
10.375214338302612,0.33,-2.32,3.62,4.31
10.385016441345215,3.37,-1.57,8.69,9.45
10.395466566085815,5.2,-0.85,13.05,14.07
10.410182237625122,4.75,-1.34,15.66,16.41
10.415464401245117,3.57,-1.66,14.71,15.22
10.440786361694336,2.64,-0.92,13.05,13.34
10.442925453186035,2.3,-0.3,11.47,11.7
10.445061445236206,2.49,0.03,9.87,10.17
10.455097436904907,2.71,0.44,8.51,8.94
10.465198278427124,2.74,0.82,7.22,7.76
10.475364446640015,2.91,0.96,5.73,6.49
10.485986471176147,2.91,0.77,4.14,5.11
10.495949506759644,2.47,0.23,2.85,3.77
10.510323286056519,2.02,-0.07,1.76,2.68
10.515905380249023,1.91,-0.16,0.41,1.96
10.539427518844604,1.87,-0.25,-1.19,2.23
10.540927410125732,1.69,-0.29,-2.91,3.37
10.54587435722351,1.62,-0.07,-4.73,5.0
10.556431531906128,1.43,0.16,-6.43,6.58
10.566415548324585,0.85,0.19,-7.49,7.54
10.57662558555603,0.21,-0.19,-8.27,8.27
10.586380243301392,-0.2,-0.6,-9.01,9.03
10.596732378005981,0.4,-1.07,-8.9,8.97
10.611541509628296,0.67,-1.24,-8.15,8.27
10.616703271865845,-0.16,-1.02,-8.3,8.36
10.639760255813599,-0.04,-1.03,-8.57,8.63
10.641240358352661,0.17,-1.15,-8.84,8.91
10.64667534828186,0.22,-1.32,-8.99,9.08
10.657387495040894,0.07,-1.37,-8.91,9.01
10.667137384414673,-0.28,-1.24,-8.6,8.69
10.677265405654907,-0.48,-0.98,-8.01,8.08
10.687384366989136,-0.41,-0.61,-6.97,7.0
10.697765588760376,-0.28,-0.4,-5.0,5.02
10.711888551712036,0.29,-0.49,-0.31,0.64
10.717447519302368,1.23,-0.34,4.66,4.83
10.739075422286987,2.95,-0.58,7.35,7.94
10.741284370422363,4.21,-1.35,12.67,13.41
10.748006582260132,3.94,-1.74,15.65,16.23
10.758861303329468,2.4,-1.46,17.34,17.56
10.767986536026001,1.11,-1.01,18.23,18.29
10.778233289718628,0.31,-1.51,16.72,16.79
10.787910461425781,-0.61,-2.21,13.48,13.67
10.798375368118286,-0.61,-2.95,9.9,10.34
10.822485446929932,0.09,-3.13,7.07,7.73
10.823935270309448,0.92,-2.83,4.43,5.33
10.827864408493042,1.65,-2.34,1.68,3.31
10.838021516799927,2.29,-1.86,-0.86,3.07
10.848524332046509,2.74,-1.3,-3.06,4.3
10.858506441116333,2.85,-0.61,-4.84,5.64
10.868557453155518,2.69,0.04,-6.15,6.71
10.878839254379272,2.34,0.52,-6.98,7.38
10.888915300369263,1.83,0.63,-7.57,7.81
10.899052381515503,1.25,0.36,-8.0,8.1
10.909929513931274,0.7,-0.12,-8.36,8.39
10.919206380844116,0.42,0.03,-8.45,8.46
10.940244436264038,0.48,0.3,-8.51,8.52
10.941729307174683,0.84,0.51,-8.53,8.58
10.948867559432983,0.99,0.54,-8.46,8.53
10.95932936668396,0.6,0.5,-8.2,8.23
10.969324350357056,0.03,0.63,-7.2,7.22
10.979567289352417,-0.56,0.85,-5.57,5.66
10.990259408950806,-0.91,0.99,-3.45,3.7
10.999440431594849,-0.72,0.94,-0.34,1.23
11.009754419326782,0.15,0.7,3.03,3.11
11.019618272781372,1.39,0.18,6.23,6.38
11.038649320602417,2.32,-0.76,9.27,9.58
11.040725469589233,2.61,-1.88,11.72,12.15
11.050053358078003,1.68,-2.54,13.54,13.87
11.060389280319214,0.39,-2.64,14.4,14.64
11.070045471191406,-0.67,-2.58,13.74,13.99
11.080403566360474,-1.14,-2.48,11.76,12.07
11.090478420257568,-0.88,-2.34,9.07,9.4
11.100211381912231,0.13,-2.16,6.27,6.63
11.110387563705444,1.33,-1.91,3.65,4.32
11.120482444763184,2.22,-1.5,1.18,2.92
11.138813257217407,2.76,-1.1,-1.12,3.17
11.140165567398071,3.16,-0.83,-3.46,4.75
11.150378465652466,3.38,-0.48,-5.7,6.64
11.160450458526611,3.12,0.07,-7.38,8.01
11.171091318130493,2.56,0.48,-8.33,8.72
11.180762529373169,2.16,0.52,-8.95,9.22
11.191102266311646,1.54,0.47,-9.18,9.32
11.204378366470337,1.96,-0.22,-8.79,9.0
11.222649335861206,2.55,-0.78,-8.33,8.74
11.22388744354248,1.89,-0.52,-8.56,8.78
11.23086428642273,0.67,-0.13,-8.88,8.9
11.241057395935059,-0.01,0.02,-8.93,8.93
11.25131630897522,-0.02,-0.17,-8.57,8.57
11.261554479598999,0.26,-0.5,-7.76,7.78
11.271564245223999,0.33,-0.33,-6.4,6.41
11.28146743774414,-1.11,0.23,-4.13,4.28
11.29201626777649,-2.42,0.68,-1.51,2.93
11.322226285934448,-2.37,0.96,0.26,2.57
11.323619365692139,-1.38,1.38,3.97,4.42
11.324832439422607,0.1,1.25,4.52,4.69
11.33181643486023,2.65,-0.24,6.13,6.68
11.34185528755188,4.37,-2.36,7.11,8.67
11.351787328720093,4.09,-3.7,7.7,9.47
11.362313508987427,2.74,-3.74,8.76,9.91
11.373437404632568,1.48,-3.12,9.61,10.21
11.382446527481079,0.3,-2.56,9.59,9.93
11.392434358596802,-0.76,-2.21,8.81,9.11
11.424344301223755,-1.14,-2.2,7.56,7.95
11.425596475601196,-0.96,-2.23,6.01,6.48
11.426849365234375,-0.69,-1.98,4.43,4.9
11.432297468185425,-0.44,-1.38,3.16,3.47
11.442492246627808,-0.28,-0.76,2.2,2.34
11.452742338180542,-0.18,-0.54,1.31,1.42
11.463104486465454,0.14,-0.38,0.24,0.47
11.473275423049927,0.78,-0.39,-0.81,1.19
11.483110427856445,1.31,-0.49,-1.52,2.06
11.493518590927124,1.39,-0.46,-2.04,2.51
11.509128332138062,1.24,-0.27,-2.41,2.72
11.513591527938843,1.05,-0.15,-2.71,2.91
11.541694402694702,0.83,-0.22,-2.84,2.96
11.54312252998352,0.83,-0.43,-2.84,2.98
11.544454336166382,1.11,-0.39,-2.78,3.01
11.553352355957031,1.56,0.11,-2.71,3.12
11.563392400741577,1.98,0.57,-2.91,3.56
11.573723554611206,2.35,0.92,-3.39,4.22
11.583896398544312,2.52,1.16,-4.34,5.15
11.594090461730957,2.53,1.32,-5.64,6.32
11.603891372680664,2.41,1.53,-6.92,7.48
11.622779369354248,2.18,1.69,-7.83,8.3
11.624020338058472,2.29,1.79,-7.92,8.43
11.63402247428894,2.83,1.91,-7.38,8.13
11.643982410430908,3.01,2.15,-6.86,7.79
11.654643297195435,2.88,2.33,-6.07,7.11
11.664464235305786,2.75,2.18,-4.99,6.1
11.674732446670532,2.39,1.8,-3.41,4.53
11.684500455856323,1.97,1.33,-1.14,2.63
11.694830417633057,1.65,0.81,1.85,2.6
11.704931497573853,1.13,0.13,5.14,5.26
11.725010395050049,0.43,-0.95,8.22,8.28
11.726504564285278,-0.01,-2.11,10.82,11.02
11.735202550888062,-1.67,-1.73,15.88,16.06
11.745256423950195,-2.88,-1.91,19.22,19.52
11.755398511886597,-1.75,-3.96,16.43,16.99
11.765344381332397,-0.11,-5.04,11.73,12.76
11.775482416152954,0.49,-4.52,7.95,9.15
11.78576946258545,-0.29,-2.82,5.83,6.48
11.795902490615845,-0.17,-1.11,4.2,4.34
11.822117567062378,0.38,-0.19,2.59,2.62
11.823479413986206,0.81,-0.01,1.05,1.32
11.825199365615845,1.0,-0.29,-0.36,1.1
11.835320472717285,1.25,-0.73,-1.61,2.16
11.845886468887329,1.63,-1.02,-2.8,3.39
11.856197357177734,1.96,-1.06,-4.03,4.6
11.865957498550415,1.99,-0.91,-5.09,5.54
11.876203298568726,2.12,-0.66,-5.86,6.26
11.88633942604065,2.29,-0.26,-6.42,6.82
11.89654541015625,2.29,0.18,-6.76,7.13
11.92304253578186,2.13,0.52,-6.86,7.2
11.924495458602905,2.0,0.74,-7.05,7.36
11.926006555557251,2.04,0.86,-7.41,7.73
11.936173439025879,2.24,0.9,-7.85,8.21
11.946289300918579,2.28,0.9,-8.32,8.67
11.956993341445923,2.18,0.89,-8.23,8.56
11.966939449310303,1.87,1.04,-7.2,7.51
11.97708249092102,1.4,1.31,-5.55,5.87
11.986852407455444,0.89,1.63,-3.42,3.89
12.001195430755615,0.4,1.8,-0.57,1.93
12.020531415939331,-0.27,1.53,2.62,3.04
12.022425413131714,0.07,0.87,5.95,6.01
12.026884317398071,0.9,-0.37,8.44,8.49
12.037421464920044,1.32,-1.65,9.59,9.82
12.047587394714355,1.17,-2.34,10.2,10.53
12.05746054649353,0.15,-2.37,10.1,10.37
12.067565441131592,-0.81,-2.06,9.25,9.51
12.077733278274536,-0.86,-1.63,8.23,8.43
12.087530374526978,-0.68,-1.05,7.2,7.3
12.101359367370605,-0.57,-0.39,6.33,6.36
12.12095046043396,-0.33,-0.07,5.53,5.54
12.122191429138184,0.1,-0.09,4.57,4.57
12.127419471740723,0.49,-0.34,3.31,3.36
12.13759732246399,0.89,-0.7,2.08,2.36
12.147691488265991,1.27,-0.99,0.9,1.84
12.158135414123535,1.65,-1.13,-0.29,2.02
12.168094396591187,2.07,-1.07,-1.42,2.72
12.178380250930786,2.48,-0.75,-2.39,3.52
12.189610242843628,2.75,-0.15,-3.32,4.31
12.20303750038147,2.79,0.49,-4.27,5.12
12.222196340560913,2.62,1.05,-5.03,5.76
12.223685503005981,2.37,1.43,-5.63,6.27
12.228281259536743,2.22,1.53,-6.2,6.76
12.238337278366089,2.21,1.5,-6.97,7.46
12.248844385147095,2.34,1.4,-8.02,8.47
12.258968591690063,2.55,1.26,-8.79,9.23
12.268811464309692,2.63,1.06,-9.18,9.6
12.279287576675415,2.82,0.8,-9.12,9.57
12.289450407028198,2.96,0.67,-8.54,9.06
12.30388331413269,2.87,0.74,-7.46,8.02
12.323331356048584,2.34,0.86,-5.82,6.33
12.324846506118774,1.57,0.84,-4.01,4.38
12.329001426696777,0.95,0.57,-2.01,2.29
12.339113473892212,0.27,0.11,0.38,0.47
12.349717378616333,-0.46,-0.37,3.02,3.07
12.359899282455444,-0.71,-0.73,6.12,6.2
12.369897365570068,-0.36,-1.0,9.02,9.08
12.38015341758728,-0.22,-1.84,10.88,11.03
12.390339374542236,0.64,-3.22,11.39,11.85
12.399928331375122,0.44,-3.75,11.01,11.63
12.422963380813599,-0.99,-2.95,10.3,10.75
12.42487359046936,-1.69,-1.99,9.12,9.48
12.429660558700562,-1.39,-1.43,8.03,8.27
12.440775394439697,-0.8,-1.03,6.99,7.11
12.449814558029175,-0.41,-0.81,5.87,5.93
12.460400342941284,-0.19,-0.86,4.75,4.83
12.47043251991272,0.39,-1.09,3.58,3.76
12.480515241622925,1.15,-1.27,2.34,2.9
12.490968465805054,1.62,-1.28,1.1,2.33
12.500491380691528,1.96,-1.16,0.15,2.28
12.52257227897644,2.26,-0.94,-0.62,2.52
12.524054288864136,2.62,-0.54,-1.2,2.93
12.53055453300476,2.82,-0.24,-1.79,3.34
12.540638446807861,2.66,0.04,-2.45,3.61
12.551075458526611,2.4,0.29,-3.16,3.97
12.561341524124146,2.1,0.58,-3.9,4.46
12.57224440574646,1.92,0.8,-4.78,5.21
12.581318378448486,1.95,0.9,-5.68,6.07
12.59163236618042,2.26,1.05,-6.38,6.84
12.601520299911499,2.63,1.46,-7.06,7.67
12.620580434799194,2.85,1.89,-7.76,8.48
12.622761487960815,2.96,2.16,-8.14,8.92
12.631230354309082,2.92,2.28,-8.1,8.9
12.641493558883667,2.72,2.31,-7.71,8.49
12.65183424949646,2.4,2.24,-6.8,7.55
12.661978483200073,1.96,2.1,-5.58,6.27
12.67226529121399,1.53,1.82,-4.1,4.73
12.682210445404053,0.94,1.48,-1.72,2.45
12.692442417144775,0.15,1.21,1.12,1.65
12.702006578445435,-0.04,0.7,3.82,3.88
12.720450401306152,0.32,-0.34,6.71,6.72
12.722638368606567,1.05,-1.84,9.41,9.64
12.732503414154053,1.0,-3.27,11.12,11.63
12.742652416229248,-0.06,-4.01,11.62,12.29
12.75217342376709,-1.15,-3.68,11.15,11.79
12.762771368026733,-2.02,-2.92,9.6,10.23
12.772687435150146,-2.1,-2.2,7.77,8.34
12.782811403274536,-1.47,-1.57,6.33,6.68
12.796078443527222,-0.89,-0.97,5.16,5.32
12.80321741104126,-0.31,-0.64,3.92,3.98
12.82149052619934,0.44,-0.68,2.47,2.59
12.822998285293579,1.53,-1.0,1.07,2.11
12.832797288894653,2.66,-1.09,-0.01,2.87
12.842909574508667,3.1,-0.74,-1.02,3.34
12.85334038734436,3.13,-0.29,-1.88,3.66
12.863640546798706,2.82,0.06,-2.68,3.89
12.873482465744019,2.32,0.27,-3.53,4.23
12.883341550827026,1.82,0.44,-4.37,4.75
12.897897481918335,1.52,0.68,-5.07,5.33
12.90377140045166,1.51,0.9,-5.79,6.05
12.921669244766235,1.73,1.03,-6.54,6.84
12.923360586166382,2.05,1.08,-7.33,7.68
12.933440446853638,2.41,1.12,-7.9,8.33
12.943624258041382,2.68,1.19,-8.13,8.64
12.954943418502808,2.01,1.46,-7.91,8.29
12.964219331741333,2.91,1.42,-7.61,8.27
12.974230527877808,3.86,1.48,-7.56,8.61
12.984123468399048,2.9,1.46,-6.82,7.55
12.999263525009155,1.5,1.28,-4.94,5.31
13.021873235702515,0.64,1.07,-2.47,2.76
13.023382425308228,-0.13,0.57,0.21,0.62
13.024828433990479,-1.1,-0.11,3.26,3.44
13.034329414367676,-1.48,-0.89,5.9,6.14
13.044787406921387,-1.07,-1.68,7.96,8.2
13.055001497268677,-0.55,-2.35,9.48,9.78
13.065043449401855,-0.29,-2.93,10.0,10.42
13.075284242630005,-0.43,-3.36,10.04,10.59
13.084861516952515,-0.98,-3.56,9.52,10.21
13.098622560501099,-1.52,-3.31,8.23,8.99
13.121038436889648,-1.66,-2.67,6.67,7.37
13.12308955192566,-1.58,-1.89,5.15,5.7
13.124847412109375,-1.38,-1.22,3.87,4.28
13.134907484054565,-0.92,-0.79,2.92,3.16
13.145375490188599,-0.19,-0.48,2.05,2.11
13.155360460281372,0.45,-0.34,1.35,1.46
13.165618419647217,0.91,-0.32,0.62,1.14
13.17577838897705,1.28,-0.3,0.04,1.31
13.185569524765015,1.6,-0.14,-0.28,1.63
13.195786237716675,1.66,0.09,-0.55,1.75
13.219507455825806,1.57,0.31,-0.78,1.78
13.221545457839966,1.5,0.52,-1.14,1.95
13.225510358810425,1.41,0.76,-1.53,2.21
13.235625505447388,1.41,0.95,-2.0,2.62
13.245837450027466,1.48,1.14,-2.63,3.22
13.256213426589966,1.56,1.25,-3.36,3.9
13.266220331192017,1.74,1.29,-4.15,4.68
13.27642035484314,1.98,1.3,-5.1,5.62
13.286609411239624,2.25,1.28,-6.01,6.54
13.296375513076782,2.52,1.37,-6.6,7.19
13.321380376815796,2.9,1.62,-6.8,7.56
13.323533296585083,3.05,1.95,-6.73,7.64
13.326419591903687,2.79,2.14,-6.29,7.2
13.339701414108276,2.22,2.17,-5.05,5.92
13.346932411193848,1.61,2.22,-3.07,4.11
13.357102394104004,1.12,2.11,-0.92,2.55
13.366766452789307,0.78,1.74,1.13,2.21
13.377152442932129,0.54,1.18,3.97,4.17
13.388385534286499,0.8,0.42,6.74,6.8
13.397155523300171,1.14,-0.29,8.35,8.43
13.42167353630066,0.98,-1.28,9.0,9.14
13.423149347305298,0.37,-2.12,9.18,9.42
13.427151441574097,-0.91,-2.32,8.81,9.15
13.437134504318237,-1.89,-2.04,7.97,8.44
13.447309255599976,-2.0,-1.72,7.09,7.56
13.457781553268433,-1.33,-1.43,6.41,6.7
13.468047380447388,-0.2,-1.1,5.71,5.81
13.47797441482544,0.68,-0.8,4.62,4.73
13.487962484359741,1.16,-0.71,3.19,3.46
13.49780535697937,1.44,-0.82,1.74,2.4
13.522250413894653,1.67,-0.97,0.35,1.96
13.52351450920105,1.76,-1.04,-0.94,2.25
13.527759313583374,1.71,-0.92,-1.97,2.76
13.537962436676025,1.62,-0.7,-2.95,3.43
13.548253297805786,1.59,-0.49,-3.89,4.23
13.558471441268921,1.39,-0.32,-4.63,4.84
13.568537473678589,1.19,-0.39,-5.29,5.43
13.578679323196411,1.41,-0.05,-6.3,6.45
13.592746496200562,1.5,0.24,-7.15,7.3
13.598588466644287,1.69,0.33,-7.88,8.06
13.619781255722046,1.87,0.36,-8.55,8.75
13.621728420257568,1.88,0.39,-9.0,9.2
13.628687381744385,1.81,0.45,-9.13,9.31
13.639665365219116,1.79,0.5,-8.88,9.07
13.64932131767273,1.52,0.59,-8.11,8.27
13.659184455871582,0.85,0.76,-7.09,7.18
13.669245481491089,0.06,0.87,-6.01,6.07
13.679474353790283,-0.56,0.76,-4.2,4.3
13.692760467529297,-0.98,0.52,-2.11,2.38
13.699394464492798,-0.89,0.17,0.99,1.34
13.719974279403687,0.02,-0.63,4.47,4.51
13.72210431098938,1.15,-1.36,6.19,6.44
13.729416370391846,2.7,-2.15,8.13,8.83
13.739583253860474,3.71,-3.18,9.65,10.81
13.750068426132202,2.56,-3.28,10.88,11.64
13.760116338729858,0.63,-2.25,11.34,11.57
13.771173238754272,-0.51,-1.35,10.94,11.03
13.780002355575562,-0.5,-1.35,10.14,10.24
13.793558359146118,-0.09,-1.57,9.03,9.16
13.80009937286377,0.11,-1.37,7.65,7.77
13.81934642791748,0.14,-0.99,6.24,6.31
13.821474313735962,0.48,-0.67,4.87,4.93
13.83012843132019,0.97,-0.7,3.3,3.51
13.84005331993103,1.47,-0.82,1.86,2.5
13.850868463516235,1.87,-1.01,1.01,2.35
13.860650300979614,2.09,-0.95,0.21,2.3
13.870907545089722,2.32,-0.64,-1.18,2.68
13.880881547927856,2.35,-0.46,-2.69,3.6
13.894114255905151,2.1,-0.27,-3.93,4.46
13.90101146697998,1.91,0.0,-4.89,5.24
13.920490503311157,1.66,0.29,-5.62,5.86
13.92189335823059,1.33,0.56,-5.97,6.14
13.931072473526001,1.41,0.67,-6.34,6.52
13.940965414047241,1.44,0.65,-6.61,6.79
13.95146632194519,0.81,0.57,-7.02,7.08
13.961616277694702,0.56,0.51,-7.84,7.87
13.971854448318481,0.58,0.49,-8.47,8.5
13.981512308120728,0.62,0.42,-8.42,8.45
13.991539239883423,0.43,0.51,-7.56,7.58
14.001853466033936,0.19,0.64,-6.23,6.26
14.020350456237793,-0.09,0.74,-4.72,4.77
14.021862268447876,-0.39,0.85,-3.33,3.45
14.031593561172485,-0.67,0.98,-2.04,2.36
14.041717290878296,-1.04,1.06,0.57,1.59
14.05213737487793,-0.63,0.63,2.17,2.34
14.062320470809937,0.92,-0.46,2.53,2.73
14.072498559951782,2.28,-0.85,4.95,5.51
14.082293272018433,3.38,-1.54,7.5,8.36
14.092697381973267,3.96,-1.85,9.05,10.05
14.103008508682251,3.18,-1.6,10.08,10.69
14.122799396514893,1.87,-1.33,10.03,10.28
14.124263525009155,0.73,-0.87,9.25,9.31
14.132401466369629,-0.12,-0.45,8.28,8.29
14.142347574234009,-0.28,-0.14,6.85,6.85
14.153686285018921,0.08,-0.03,5.28,5.28
14.162963390350342,0.45,-0.05,3.79,3.81
14.173062562942505,0.85,0.0,2.26,2.41
14.183215379714966,1.17,0.15,0.71,1.37
14.193179368972778,1.45,0.19,-0.83,1.68
14.220959424972534,1.7,0.07,-2.25,2.82
14.222471475601196,1.84,0.0,-3.45,3.91
14.223849534988403,1.74,0.07,-4.39,4.72
14.23310136795044,1.41,0.21,-5.06,5.25
14.243216276168823,1.1,0.35,-5.49,5.61
14.25356936454773,0.91,0.44,-5.85,5.93
14.263533353805542,0.99,0.53,-6.41,6.5
14.27389645576477,1.49,0.61,-7.0,7.18
14.283558368682861,2.05,0.76,-7.53,7.84
14.293891429901123,2.4,0.91,-8.05,8.44
14.318580389022827,2.58,1.0,-8.5,8.93
14.320769548416138,2.36,0.87,-8.75,9.1
14.323692560195923,2.48,0.91,-8.94,9.32
14.333816289901733,2.62,1.07,-8.6,9.05
14.343919515609741,2.14,1.1,-7.25,7.63
14.354159355163574,0.84,0.94,-4.12,4.3
14.364295244216919,-0.54,0.8,-0.35,1.02
14.374786376953125,-1.27,0.28,2.49,2.8
14.389593362808228,-1.38,-0.54,5.57,5.76
14.394644498825073,-0.35,-1.17,7.71,7.8
14.420471429824829,0.56,-2.58,9.31,9.67
14.422649383544922,1.78,-4.44,11.56,12.51
14.424919366836548,2.14,-4.85,13.16,14.18
14.43471646308899,1.61,-4.37,12.75,13.57
14.444520235061646,-0.1,-3.37,10.42,10.95
14.45518946647644,-1.99,-2.24,7.61,8.17
14.465188264846802,-2.17,-1.42,6.0,6.53
14.475240468978882,-1.36,-1.18,5.47,5.75
14.490558385848999,-0.57,-1.11,5.29,5.43
14.495286464691162,-0.05,-1.21,4.53,4.68
14.521201372146606,0.4,-1.48,3.25,3.59
14.52261757850647,0.96,-1.82,1.86,2.77
14.525110483169556,1.62,-2.06,0.64,2.69
14.536002397537231,2.19,-1.91,-0.39,2.93
14.545409440994263,2.52,-1.31,-1.3,3.12
14.555867433547974,2.81,-0.69,-1.95,3.48
14.565829515457153,2.96,-0.15,-2.28,3.73
14.576079368591309,3.0,0.19,-2.53,3.92
14.59077525138855,2.95,0.14,-2.59,3.92
14.596105337142944,2.4,0.28,-2.7,3.62
14.618277311325073,1.57,1.0,-3.44,3.91
14.620303392410278,1.1,1.35,-4.6,4.91
14.625940561294556,0.82,1.3,-5.92,6.11
14.635997533798218,0.8,1.2,-6.79,6.94
14.646191358566284,0.87,1.18,-7.18,7.32
14.656616449356079,1.07,1.18,-7.46,7.62
14.666585445404053,1.47,1.26,-7.53,7.77
14.67682147026062,1.92,1.36,-7.49,7.85
14.690178394317627,2.13,1.53,-7.18,7.64
14.696768522262573,1.72,1.68,-6.19,6.64
14.718984365463257,1.63,1.35,-5.1,5.52
14.721012353897095,1.46,0.74,-3.72,4.06
14.726598501205444,-0.04,0.81,-0.24,0.84
14.7383394241333,0.18,0.36,1.32,1.38
14.747238397598267,-0.02,-0.31,3.81,3.82
14.757323503494263,0.3,-1.18,5.38,5.51
14.767290353775024,0.69,-2.01,6.2,6.55
14.777463436126709,0.79,-2.41,6.28,6.77
14.802639245986938,0.34,-2.11,5.92,6.29
14.803889513015747,-0.62,-1.26,6.52,6.66
14.807214498519897,-1.15,-0.85,7.35,7.48
14.81735348701477,-1.26,-0.85,7.83,7.97
14.827475309371948,-1.16,-0.96,8.33,8.46
14.83762526512146,-0.93,-1.08,8.1,8.22
14.848307371139526,-0.8,-1.15,7.17,7.3
14.858161449432373,-0.62,-1.11,6.35,6.47
14.867923498153687,-0.06,-1.19,5.64,5.76
14.87868857383728,0.76,-1.34,4.67,4.91
14.888384580612183,1.44,-1.43,3.23,3.81
14.898225545883179,1.86,-1.4,1.62,2.83
14.919848442077637,2.16,-1.22,0.26,2.49
14.92132043838501,2.57,-0.87,-0.92,2.86
14.928197383880615,2.93,-0.46,-2.16,3.66
14.93833327293396,3.34,-0.03,-3.24,4.65
14.948733568191528,3.6,0.38,-4.29,5.61
14.958942413330078,3.46,0.77,-5.23,6.31
14.969517469406128,3.12,1.05,-5.91,6.76
14.97900938987732,2.78,1.1,-6.28,6.95
14.98898959159851,2.69,1.18,-6.52,7.15
14.999032258987427,2.83,1.43,-6.97,7.65
15.018638372421265,3.11,1.69,-7.65,8.42
15.02070140838623,3.41,1.69,-7.9,8.76
15.02897047996521,3.26,1.67,-7.88,8.68
15.039016485214233,2.95,2.14,-7.97,8.76
15.049529314041138,3.2,2.26,-7.48,8.44
15.05959153175354,3.37,2.09,-6.81,7.88
15.06969141960144,3.03,1.76,-6.32,7.22
15.07974123954773,2.84,0.98,-5.73,6.46
15.089667558670044,2.78,0.0,-4.24,5.07
15.099844455718994,2.63,-0.62,-1.95,3.33
15.118228435516357,2.5,-1.08,0.5,2.76
15.119657278060913,1.8,-1.57,4.43,5.03
15.129594564437866,-0.45,-1.17,7.88,7.97
15.139824390411377,0.68,-1.51,7.37,7.55
15.1500084400177,0.92,-2.72,9.57,9.99
15.16046929359436,0.32,-3.17,10.15,10.63
15.170501470565796,-0.39,-2.76,10.42,10.78
15.18373441696167,-1.78,-2.08,10.3,10.65
15.201932430267334,-2.0,-1.49,10.21,10.51
15.203189373016357,-1.41,-1.16,10.01,10.17
15.210159540176392,-1.02,-1.01,9.16,9.27
15.220429420471191,-0.62,-1.12,7.87,7.97
15.230464458465576,-0.1,-1.41,6.31,6.46
15.241020441055298,0.58,-1.67,4.58,4.9
15.250868558883667,1.03,-1.74,2.87,3.51
15.26106858253479,1.5,-1.65,1.39,2.62
15.271105527877808,2.0,-1.45,0.19,2.47
15.30240535736084,2.27,-1.19,-0.89,2.71
15.303819417953491,2.43,-0.85,-1.69,3.07
15.305036306381226,2.44,-0.44,-2.39,3.44
15.310943365097046,2.35,-0.05,-3.04,3.84
15.321175336837769,2.29,0.27,-3.7,4.35
15.33113145828247,2.14,0.49,-4.36,4.88
15.341551542282104,1.86,0.64,-4.94,5.31
15.352756261825562,1.59,0.73,-5.49,5.76
15.361847400665283,1.42,0.72,-6.15,6.35
15.37261438369751,1.37,0.78,-6.9,7.07
15.403881311416626,1.78,0.89,-7.65,7.9
15.40537428855896,2.21,1.17,-8.13,8.5
15.406571388244629,2.57,1.67,-8.3,8.84
15.411750555038452,2.98,2.48,-8.33,9.18
15.421960353851318,3.22,2.46,-7.76,8.75
15.432109355926514,2.31,1.66,-6.61,7.19
15.442490339279175,2.22,1.74,-5.06,5.79
15.452739477157593,1.97,1.57,-2.8,3.76
15.462555408477783,1.1,0.88,-0.01,1.4
15.473043441772461,0.84,0.04,2.38,2.52
15.488516569137573,0.73,-0.52,4.89,4.97
15.492889404296875,0.27,-1.1,7.81,7.89
15.521810293197632,-0.31,-1.68,10.38,10.51
15.523732423782349,-0.76,-2.28,12.27,12.5
15.524960279464722,-1.37,-2.74,12.63,12.99
15.532922506332397,-2.02,-2.64,11.82,12.27
15.542794466018677,-2.01,-2.15,10.37,10.77
15.55293345451355,-1.29,-1.71,8.88,9.13
15.563347578048706,-0.43,-1.5,7.53,7.68
15.573405504226685,0.36,-1.62,5.87,6.1
15.583306550979614,0.93,-1.78,3.95,4.43
15.601898431777954,1.26,-1.97,2.12,3.15
15.603154420852661,1.66,-2.09,0.71,2.76
15.61323857307434,2.12,-1.97,-0.45,2.92
15.623401403427124,2.28,-1.66,-1.64,3.26
15.63342833518982,2.32,-1.33,-2.6,3.72
15.644014358520508,2.3,-0.95,-3.26,4.1
15.654014348983765,2.23,-0.48,-3.64,4.29
15.663941383361816,2.04,0.08,-4.05,4.53
15.674103498458862,1.74,0.61,-4.62,4.97
15.684134244918823,1.6,0.99,-5.31,5.63
15.702759504318237,1.67,1.22,-6.26,6.59
15.704009294509888,1.78,1.36,-7.22,7.55
15.714098453521729,2.02,1.45,-7.9,8.28
15.724214315414429,2.44,1.55,-8.19,8.68
15.73527455329895,2.8,1.72,-8.03,8.67
15.74469542503357,2.94,2.03,-7.52,8.32
15.754748582839966,2.62,2.24,-6.77,7.59
15.764657258987427,1.89,2.23,-5.59,6.3
15.775295495986938,1.39,2.04,-4.38,5.02
15.801764249801636,1.09,1.6,-3.1,3.65
15.803866386413574,0.93,0.85,-1.59,2.02
15.805081367492676,1.07,0.04,-0.14,1.07
15.814757585525513,1.41,-0.61,1.43,2.09
15.82485842704773,1.65,-0.95,3.29,3.8
15.835339307785034,1.77,-1.08,4.91,5.32
15.84520936012268,1.33,-1.36,6.27,6.55
15.855425357818604,0.78,-1.65,7.44,7.66
15.865398406982422,-0.24,-1.8,8.27,8.46
15.875643491744995,-1.49,-1.81,9.01,9.31
15.900805234909058,-2.04,-1.73,9.96,10.31
15.902807474136353,-1.92,-1.79,10.47,10.79
15.905386447906494,-1.49,-1.87,10.13,10.4
15.915425539016724,-0.89,-1.76,9.14,9.35
15.925553560256958,-0.28,-1.59,7.64,7.8
15.936054468154907,0.51,-1.39,5.88,6.06
15.946169376373291,1.29,-1.22,4.33,4.67
15.956220388412476,2.02,-1.03,3.16,3.88
15.966432332992554,2.64,-0.87,2.03,3.44
15.981058359146118,3.01,-0.69,0.97,3.23
16.002257585525513,3.09,-0.48,0.03,3.12
16.003753423690796,3.0,-0.32,-0.68,3.09
16.00626254081726,2.96,-0.18,-1.38,3.27
16.016298532485962,2.95,0.04,-2.12,3.63
16.02676749229431,2.9,0.22,-2.92,4.12
16.03699231147766,2.97,0.44,-3.81,4.85
16.046807527542114,2.95,0.74,-4.81,5.69
16.057039499282837,2.71,1.03,-5.64,6.34
16.067294359207153,2.52,1.26,-6.26,6.86
16.08129644393921,2.29,1.44,-6.85,7.36
16.10070824623108,2.12,1.43,-7.47,7.89
16.1028094291687,1.97,1.25,-8.02,8.35
16.106797456741333,1.94,1.05,-8.37,8.65
16.12010645866394,2.05,0.97,-8.47,8.76
16.127532243728638,2.18,0.95,-8.46,8.78
16.137409448623657,2.37,0.9,-8.33,8.7
16.147453546524048,2.57,0.89,-7.64,8.1
16.15783143043518,2.46,1.14,-5.99,6.57
16.168756246566772,2.04,1.23,-4.06,4.7
16.18239426612854,1.6,0.91,-2.35,2.98
16.201966524124146,1.18,0.27,-0.7,1.39
16.20322346687317,0.44,-0.52,1.94,2.05
16.207923412322998,-0.27,-1.3,6.04,6.18
16.21783757209778,-0.1,-2.16,10.32,10.54
16.228288412094116,0.19,-3.41,12.8,13.24
16.238370418548584,-0.12,-4.48,12.9,13.65
16.248489379882812,-1.41,-4.25,11.66,12.49
16.25860333442688,-2.45,-3.01,10.56,11.25
16.268959283828735,-1.96,-1.98,9.84,10.22
16.282849550247192,-0.89,-1.62,8.88,9.07
16.301729440689087,-0.17,-1.4,7.56,7.69
16.303098440170288,0.11,-1.24,5.88,6.01
16.30843758583069,0.47,-1.3,4.01,4.24
16.318621397018433,0.88,-1.54,2.27,2.88
16.328949451446533,1.41,-1.59,0.91,2.31
16.339166402816772,1.94,-1.33,-0.12,2.35
16.348963499069214,2.34,-0.88,-0.95,2.67
16.35948634147644,2.41,-0.45,-1.82,3.05
16.369675397872925,2.33,-0.11,-2.55,3.45
16.37937641143799,2.34,0.23,-3.26,4.01
16.4022274017334,2.18,0.66,-4.08,4.67
16.403709411621094,2.02,1.13,-4.83,5.35
16.409152269363403,2.05,1.53,-5.47,6.03
16.41929340362549,2.27,1.82,-6.04,6.7
16.429945468902588,2.55,1.96,-6.74,7.46
16.43981146812439,2.83,1.93,-7.39,8.14
16.44986653327942,3.01,1.83,-7.8,8.55
16.460012435913086,3.15,1.72,-7.95,8.72
16.470521450042725,3.36,1.64,-7.86,8.7
16.480132341384888,3.52,1.6,-7.54,8.47
16.503718376159668,3.4,1.42,-7.01,7.91
16.50521731376648,2.98,1.21,-6.12,6.91
16.51017451286316,2.25,1.01,-4.63,5.24
16.519962549209595,1.13,0.75,-2.08,2.48
16.5305655002594,-0.02,0.41,1.06,1.13
16.540520429611206,-0.78,-0.27,4.37,4.44
16.551342248916626,-0.68,-1.36,7.59,7.74
16.56071639060974,-0.85,-2.84,9.97,10.4
16.570998430252075,-1.65,-3.83,11.94,12.64
16.580812454223633,-2.43,-3.95,12.8,13.61
16.602681398391724,-2.9,-3.71,12.56,13.41
16.604645490646362,-2.32,-3.35,11.34,12.04
16.61053156852722,-1.37,-2.78,9.55,10.04
16.6207172870636,-0.36,-1.91,7.8,8.03
16.630773305892944,0.75,-0.97,6.17,6.29
16.641273260116577,1.66,-0.43,4.42,4.74
16.6512234210968,2.19,-0.47,2.61,3.43
16.661320447921753,2.58,-0.64,1.1,2.87
16.671504259109497,2.84,-0.66,-0.01,2.91
16.681405305862427,2.98,-0.52,-0.85,3.14
16.700966358184814,3.23,-0.11,-1.45,3.54
16.70223045349121,3.3,0.47,-2.11,3.94
16.71129035949707,3.12,1.02,-2.71,4.25
16.72146248817444,2.81,1.48,-3.23,4.52
16.73153853416443,2.57,1.82,-3.87,4.98
16.742019414901733,2.46,1.99,-4.72,5.68
16.75201725959778,2.55,2.1,-5.49,6.4
16.76192831993103,2.87,2.13,-6.25,7.19
16.775641441345215,3.16,2.14,-7.09,8.05
16.782232522964478,3.31,2.0,-7.72,8.63
16.802043437957764,3.38,1.78,-8.12,8.97
16.80327534675598,3.39,1.55,-8.43,9.21
16.81208038330078,3.52,1.37,-8.39,9.2
16.822296380996704,3.51,1.3,-7.9,8.74
16.83273959159851,3.48,1.24,-7.35,8.22
16.84260058403015,3.43,1.09,-6.59,7.5
16.85279154777527,3.24,0.89,-5.36,6.32
16.862727403640747,2.51,0.48,-3.35,4.21
16.876487493515015,1.37,-0.2,0.01,1.38
16.90106749534607,0.51,-1.25,3.73,3.96
16.903314352035522,0.48,-2.56,7.48,7.92
16.904539346694946,0.51,-3.84,11.2,11.85
16.913435459136963,-0.77,-4.79,12.7,13.59
16.92341637611389,-2.65,-4.92,12.05,13.28
16.933329343795776,-4.22,-4.23,11.32,12.8
16.943541288375854,-4.37,-3.43,10.72,12.07
16.9535493850708,-3.59,-2.88,10.15,11.14
16.96348237991333,-2.76,-2.29,9.33,9.99
16.97756552696228,-2.02,-1.85,8.06,8.51
17.00055432319641,-1.07,-1.83,6.29,6.63
17.002389430999756,0.03,-1.97,4.35,4.77
17.00362753868103,0.94,-1.84,2.7,3.39
17.01363730430603,1.49,-1.63,1.32,2.57
17.023666381835938,1.83,-1.49,0.21,2.36
17.03372836112976,2.21,-1.29,-0.51,2.6
17.04448628425598,2.39,-0.78,-0.84,2.65
17.05436635017395,2.33,-0.34,-1.41,2.74
17.06425929069519,2.31,-0.09,-2.0,3.05
17.078989267349243,2.38,0.21,-2.47,3.43
17.10317039489746,2.34,0.59,-3.08,3.91
17.10467553138733,2.14,0.84,-3.75,4.39
17.106156587600708,2.01,0.93,-4.35,4.88
17.114391565322876,1.91,0.99,-4.93,5.37
17.124412298202515,1.84,1.05,-5.58,5.96
17.13509726524353,1.96,1.03,-6.1,6.48
17.145054578781128,2.14,1.06,-6.5,6.92
17.155177354812622,2.35,1.2,-6.81,7.3
17.16537833213806,2.65,1.4,-7.0,7.61
17.17489242553711,3.01,1.53,-7.08,7.84
17.201586484909058,3.47,1.71,-6.75,7.77
17.203062295913696,3.45,2.03,-6.05,7.25
17.20489740371704,2.86,2.03,-5.27,6.33
17.215062379837036,2.33,1.55,-3.78,4.7
17.225224256515503,2.07,0.99,-1.73,2.87
17.235636472702026,1.48,0.52,0.25,1.58
17.24561333656311,0.88,-0.07,1.94,2.13
17.255770444869995,0.34,-0.64,3.61,3.68
17.2662193775177,-0.28,-1.13,5.59,5.7
17.27570652961731,-0.91,-1.54,7.18,7.39
17.300724267959595,-1.4,-1.82,8.24,8.55
17.302213430404663,-1.87,-1.91,8.76,9.15
17.30578637123108,-2.12,-1.89,8.81,9.25
17.3163583278656,-1.9,-1.75,8.46,8.84
17.325889348983765,-1.21,-1.37,7.88,8.08
17.33638644218445,-0.39,-0.89,6.98,7.04
17.346380472183228,0.17,-0.59,5.65,5.68
17.3567373752594,0.43,-0.52,4.15,4.2
17.36760139465332,0.6,-0.5,3.05,3.14
17.37657856941223,0.74,-0.5,2.1,2.28
17.401055574417114,0.9,-0.55,1.25,1.63
17.40250849723816,1.2,-0.48,0.63,1.43
17.406460523605347,1.4,-0.32,0.07,1.43
17.416653394699097,1.5,-0.03,-0.51,1.58
17.426761388778687,1.53,0.29,-1.08,1.89
17.437093496322632,1.73,0.55,-1.4,2.29
17.447033405303955,2.12,0.95,-1.5,2.76
17.457614421844482,2.24,1.31,-1.85,3.18
17.467424392700195,2.26,1.43,-2.26,3.5
17.47731852531433,2.29,1.42,-2.64,3.77
17.503150463104248,2.22,1.37,-3.12,4.06
17.504396438598633,2.1,1.25,-3.65,4.39
17.507143259048462,2.03,1.1,-4.25,4.83
17.517426252365112,1.94,0.97,-4.92,5.37
17.527388334274292,1.77,0.88,-5.45,5.79
17.538134336471558,1.66,0.91,-5.57,5.88
17.547792434692383,1.6,1.02,-5.64,5.95
17.55792737007141,1.53,1.09,-5.66,5.96
17.571595430374146,1.41,1.07,-5.45,5.73
17.578301429748535,1.33,0.91,-5.2,5.44
17.60171627998352,0.94,0.61,-4.72,4.85
17.60297131538391,0.5,0.15,-3.91,3.94
17.60789132118225,0.22,-0.21,-2.64,2.65
17.618382453918457,-0.13,-0.46,-0.92,1.03
17.62810730934143,-0.37,-0.76,0.98,1.29
17.638708353042603,-0.42,-1.25,2.88,3.16
17.648579359054565,-0.55,-1.84,4.74,5.11
17.65893840789795,-1.19,-2.62,6.58,7.18
17.672266244888306,-2.15,-3.55,7.87,8.89
17.678757429122925,-2.97,-4.33,8.52,10.0
17.699971437454224,-3.21,-4.39,8.74,10.29
17.70184350013733,-2.98,-3.62,8.28,9.51
17.708629369735718,-2.19,-2.32,7.6,8.24
17.71876358985901,-1.12,-1.06,6.77,6.94
17.728917360305786,-0.16,-0.33,6.12,6.13
17.739457368850708,0.34,-0.22,5.62,5.63
17.75030541419983,0.54,-0.43,4.94,4.98
17.75952458381653,0.73,-0.69,4.12,4.24
17.772993326187134,1.13,-0.8,3.28,3.56
17.77973246574402,1.53,-0.79,2.25,2.83
17.80011248588562,1.91,-0.74,1.11,2.32
17.8013653755188,2.24,-0.62,-0.02,2.32
17.80959725379944,2.43,-0.4,-1.14,2.71
17.819814443588257,2.59,-0.17,-2.24,3.42
17.830108404159546,2.83,0.11,-3.24,4.3
17.84009337425232,2.95,0.4,-4.36,5.27
17.850298404693604,2.9,0.66,-5.44,6.19
17.860164403915405,2.76,0.89,-6.3,6.93
17.875134468078613,2.63,1.09,-7.06,7.61
17.880266427993774,2.49,1.42,-7.64,8.16
17.900434255599976,2.71,1.96,-7.63,8.33
17.90168046951294,3.68,0.9,-8.04,8.88
17.910300493240356,3.97,0.81,-8.33,9.26
17.92036247253418,4.13,0.94,-8.19,9.22
17.93075442314148,3.98,1.5,-7.8,8.88
17.941136360168457,3.63,1.7,-6.8,7.89
17.950826406478882,2.94,1.58,-5.24,6.21
17.96084427833557,2.12,1.3,-3.29,4.12
17.971107244491577,1.38,0.79,-1.13,1.95
17.981258392333984,0.63,-0.1,1.18,1.34
18.001075506210327,-0.26,-1.06,3.47,3.63
18.002294301986694,-0.87,-1.78,5.81,6.13
18.010908365249634,-1.3,-2.36,8.14,8.57
18.021674394607544,-1.67,-2.94,10.05,10.6
18.031724452972412,-1.86,-3.49,11.15,11.83
18.041358470916748,-2.17,-3.52,11.02,11.77
18.05187153816223,-2.56,-2.97,9.92,10.66
18.061679363250732,-2.56,-2.23,8.45,9.1
18.07180428504944,-2.1,-1.49,7.08,7.53
18.10061240196228,-1.32,-0.85,5.91,6.11
18.101877450942993,-0.6,-0.48,4.69,4.75
18.103084325790405,0.04,-0.54,3.51,3.55
18.11163353919983,0.67,-0.79,2.33,2.54
18.12186551094055,1.31,-0.96,1.22,2.03
18.13225746154785,1.83,-0.84,0.3,2.03
18.142443418502808,2.06,-0.49,-0.4,2.15
18.152567386627197,2.12,-0.09,-1.17,2.42
18.162416458129883,2.07,0.19,-1.99,2.87
18.172728300094604,1.93,0.41,-2.75,3.38
18.20047354698181,1.77,0.6,-3.56,4.02
18.201961278915405,1.67,0.77,-4.3,4.67
18.203157424926758,1.61,0.91,-5.02,5.34
18.212637424468994,1.63,0.93,-5.72,6.01
18.22254252433777,1.8,0.93,-6.32,6.63
18.23287343978882,2.07,0.92,-6.7,7.07
18.242966413497925,2.38,0.97,-6.88,7.34
18.25331950187683,2.64,1.02,-7.01,7.55
18.263102293014526,2.87,1.06,-6.88,7.52
18.273213386535645,2.77,1.15,-6.4,7.06
18.30123543739319,2.38,1.23,-5.61,6.21
18.302709341049194,1.92,1.15,-4.55,5.07
18.303917407989502,1.32,0.88,-3.15,3.52
18.31329345703125,0.51,0.54,-1.29,1.48
18.323338270187378,-0.08,0.29,1.1,1.14
18.33359932899475,-0.25,-0.07,3.81,3.81
18.34383225440979,-0.16,-0.7,6.48,6.51
18.353906393051147,-0.35,-1.53,9.0,9.13
18.368714570999146,-0.69,-2.41,10.99,11.27
18.374083280563354,-1.16,-3.15,11.59,12.06
18.400152444839478,-1.63,-3.2,11.04,11.6
18.401398420333862,-1.79,-2.62,9.8,10.3
18.40384030342102,-1.63,-1.86,8.34,8.69
18.413976430892944,-1.16,-1.16,7.14,7.32
18.424127340316772,-0.55,-0.71,6.01,6.07
18.434484243392944,0.04,-0.49,4.71,4.73
18.44443154335022,0.53,-0.5,3.3,3.37
18.45468544960022,1.09,-0.66,2.01,2.37
18.469850301742554,1.7,-0.86,0.87,2.09
18.474745512008667,2.11,-0.97,-0.19,2.33
18.50030541419983,2.38,-0.94,-1.19,2.82
18.501712560653687,2.65,-0.81,-2.02,3.42
18.504530429840088,2.75,-0.55,-2.77,3.94
18.515246391296387,2.65,-0.23,-3.48,4.38
18.52497124671936,2.58,0.07,-4.18,4.91
18.53520941734314,2.56,0.33,-4.82,5.46
18.545271396636963,2.43,0.6,-5.47,6.01
18.55536937713623,2.35,0.82,-6.33,6.8
18.56991744041443,2.5,0.95,-7.18,7.66
18.575750589370728,2.85,1.13,-7.69,8.27
18.601415395736694,3.12,1.37,-7.97,8.66
18.60266637802124,3.27,1.58,-8.12,8.89
18.60552144050598,3.3,1.65,-7.99,8.8
18.615225553512573,3.12,1.54,-7.59,8.34
18.62548851966858,2.92,1.36,-7.03,7.73
18.63555145263672,2.67,1.1,-6.17,6.81
18.646302461624146,2.23,0.85,-4.78,5.34
18.656200408935547,1.6,0.68,-2.63,3.15
18.669492483139038,0.74,0.59,-0.05,0.94
18.676084280014038,0.0,0.28,3.06,3.07
18.699828386306763,0.06,-0.48,6.78,6.79
18.701786279678345,0.35,-1.93,10.27,10.45
18.706526517868042,0.09,-3.64,12.26,12.78
18.71736454963684,-1.1,-4.75,12.71,13.61
18.72671627998352,-2.58,-4.81,12.2,13.36
18.736342430114746,-2.96,-3.95,11.24,12.27
18.74675154685974,-2.46,-2.71,9.6,10.27
18.75669550895691,-1.71,-1.41,7.68,7.99
18.780980348587036,-1.07,-0.4,6.03,6.13
18.782233476638794,-0.57,0.06,4.5,4.53
18.786457300186157,-0.1,-0.08,2.96,2.96
18.796736478805542,0.54,-0.52,1.63,1.79
18.80675435066223,1.34,-0.91,0.53,1.7
18.816890478134155,1.95,-1.02,-0.52,2.26
18.827043294906616,2.18,-0.96,-1.48,2.8
18.837573289871216,2.33,-0.8,-2.31,3.37
18.848950386047363,2.36,-0.51,-2.9,3.77
18.857624292373657,2.28,-0.13,-3.44,4.12
18.867895364761353,2.16,0.22,-3.99,4.54
18.877633333206177,2.08,0.54,-4.63,5.1
18.899898290634155,2.05,0.81,-5.38,5.81
18.901132345199585,2.24,0.97,-6.14,6.6
18.907514333724976,2.58,1.14,-6.78,7.34
18.91769242286682,2.81,1.33,-7.25,7.88
18.928150415420532,3.0,1.47,-7.61,8.31
18.938318490982056,3.23,1.54,-7.86,8.63
18.948655366897583,3.48,1.64,-7.81,8.7
18.95836639404297,3.72,1.91,-7.41,8.5
18.96843934059143,4.04,2.19,-6.72,8.14
18.978382349014282,3.14,1.23,-4.98,6.01
18.9993953704834,2.08,1.1,-3.65,4.34
19.000611543655396,1.16,1.1,-1.4,2.12
19.008217573165894,-0.24,0.58,1.77,1.87
19.018478393554688,-0.57,-0.28,5.06,5.09
19.028720378875732,0.22,-1.65,8.4,8.56
19.03912043571472,0.59,-3.07,11.48,11.89
19.049158334732056,0.07,-3.8,13.57,14.09
19.059410333633423,-1.18,-3.66,14.08,14.59
19.08454942703247,-2.34,-2.99,13.06,13.6
19.08644437789917,-2.78,-2.42,10.94,11.54
19.08889126777649,-2.56,-1.99,8.56,9.15
19.099823236465454,-1.88,-1.55,6.42,6.86
19.109180450439453,-1.12,-1.1,4.89,5.13
19.11919331550598,-0.41,-0.85,3.61,3.73
19.12964129447937,0.34,-0.92,2.37,2.56
19.139679431915283,1.11,-1.17,1.2,2.01
19.149823427200317,1.79,-1.4,0.03,2.27
19.163642406463623,2.18,-1.43,-1.06,2.81
19.183362245559692,2.34,-1.27,-2.11,3.39
19.184544324874878,2.34,-0.99,-3.03,3.95
19.189631462097168,2.26,-0.69,-3.73,4.41
19.200059413909912,2.13,-0.37,-4.34,4.84
19.209834337234497,2.06,-0.05,-4.92,5.33
19.22029948234558,1.98,0.22,-5.45,5.8
19.23030924797058,2.02,0.45,-6.04,6.38
19.240443468093872,2.18,0.65,-6.68,7.05
19.250542402267456,2.41,0.92,-7.25,7.69
19.28356146812439,2.53,1.17,-7.53,8.02
19.284807443618774,2.95,1.35,-7.66,8.31
19.286031484603882,3.36,1.51,-7.64,8.48
19.290318250656128,3.74,2.0,-7.41,8.53
19.30055832862854,3.48,1.2,-6.68,7.62
19.310603380203247,2.68,0.86,-5.69,6.34
19.321139574050903,2.24,1.18,-4.6,5.25
19.33178448677063,1.12,1.2,-2.7,3.15
19.341249465942383,-0.11,0.75,-0.29,0.81
19.351369380950928,-0.21,0.16,2.81,2.82
19.367578268051147,0.57,-0.44,6.3,6.34
19.37143349647522,1.2,-1.25,9.3,9.46
19.40041947364807,1.2,-1.99,11.46,11.69
19.40231943130493,0.72,-2.48,12.53,12.79
19.403574466705322,-0.38,-2.57,12.0,12.27
19.411303281784058,-1.79,-2.39,10.31,10.73
19.421492338180542,-2.64,-2.11,8.34,8.99
19.43148446083069,-2.68,-1.71,6.84,7.54
19.44201135635376,-2.34,-1.21,5.67,6.25
19.452017545700073,-1.84,-0.77,4.44,4.86
19.46697735786438,-1.11,-0.61,3.08,3.33
19.472307443618774,-0.03,-0.69,1.75,1.88
19.49878239631653,1.0,-0.85,0.5,1.4
19.500020265579224,1.72,-0.9,-0.44,1.99
19.50185227394104,2.1,-0.79,-1.22,2.55
19.51202654838562,2.14,-0.63,-2.0,2.99
19.522139310836792,1.94,-0.48,-2.7,3.35
19.532313585281372,1.76,-0.31,-3.28,3.73
19.542827367782593,1.67,-0.12,-3.8,4.15
19.552881479263306,1.59,0.12,-4.34,4.62
19.56267237663269,1.48,0.36,-4.93,5.15
19.582403421401978,1.41,0.48,-5.69,5.88
19.583571434020996,1.46,0.53,-6.36,6.54
19.59253740310669,1.75,0.59,-6.73,6.97
19.602677583694458,2.23,0.73,-6.82,7.21
19.612837553024292,2.67,0.99,-6.59,7.17
19.62289047241211,3.2,1.31,-6.26,7.15
19.6329243183136,3.51,1.6,-6.03,7.15
19.64366841316223,3.15,1.67,-5.63,6.66
19.65363836288452,2.36,1.5,-4.78,5.53
19.68203043937683,1.61,1.13,-3.56,4.06
19.683294534683228,0.82,0.73,-1.94,2.22
19.684497356414795,-0.3,0.39,0.31,0.58
19.693289518356323,-0.77,-0.02,3.09,3.18
19.70339035987854,-0.32,-0.54,5.93,5.96
19.71375346183777,0.09,-1.36,8.16,8.27
19.724063396453857,-0.1,-2.17,9.44,9.68
19.734182357788086,-0.75,-2.72,9.92,10.31
19.744102239608765,-1.28,-3.15,10.02,10.58
19.754310369491577,-1.63,-2.98,9.66,10.23
19.78074049949646,-1.99,-2.2,8.47,8.97
19.781997442245483,-2.07,-1.46,6.66,7.12
19.783979415893555,-1.73,-1.11,5.1,5.49
19.794086456298828,-1.13,-0.85,3.98,4.22
19.804246425628662,-0.45,-0.63,2.95,3.04
19.81428837776184,0.1,-0.5,1.97,2.03
19.824795484542847,0.56,-0.57,1.0,1.28
19.834941387176514,1.01,-0.78,0.07,1.27
19.844741582870483,1.36,-0.89,-0.82,1.82
19.85518527030945,1.55,-0.86,-1.58,2.37
19.88145637512207,1.66,-0.68,-2.22,2.85
19.88270139694214,1.74,-0.46,-2.86,3.37
19.88469433784485,1.78,-0.25,-3.4,3.84
19.8950355052948,1.79,-0.04,-3.88,4.27
19.905009508132935,1.78,0.28,-4.39,4.74
19.91510558128357,1.68,0.51,-4.97,5.27
19.925458431243896,1.77,0.61,-5.57,5.87
19.935805559158325,2.01,0.74,-6.0,6.37
19.94552731513977,2.25,0.87,-6.33,6.77
19.959243535995483,2.46,1.0,-6.51,7.03
19.98144245147705,2.67,1.11,-6.52,7.13
19.982693433761597,2.77,1.21,-6.18,6.87
19.985507249832153,2.47,1.32,-5.45,6.12
19.995612382888794,1.9,1.43,-4.37,4.97
20.005693435668945,1.35,1.4,-2.89,3.48
20.016014337539673,0.9,1.27,-1.12,1.91
20.026451349258423,0.32,0.95,0.91,1.35
20.03633952140808,-0.32,0.31,3.48,3.5
20.046366453170776,-0.54,-0.47,5.88,5.92
20.061593294143677,-0.48,-1.18,7.43,7.53
20.08193039894104,-0.54,-1.7,8.07,8.26
20.08316946029663,-0.84,-1.98,8.18,8.45
20.086259365081787,-0.89,-1.92,8.37,8.63
20.096885442733765,-0.97,-1.65,8.42,8.63
20.10647225379944,-1.36,-1.32,7.91,8.13
20.116514444351196,-1.74,-1.07,7.2,7.48
20.1269474029541,-1.74,-1.02,6.66,6.95
20.137377500534058,-1.37,-1.09,5.97,6.22
20.147419452667236,-0.7,-1.15,5.26,5.42
20.161938428878784,0.12,-1.12,4.23,4.37
20.181710481643677,0.89,-1.15,2.85,3.19
20.18289828300476,1.53,-1.15,1.49,2.42
20.1869113445282,2.13,-1.09,0.3,2.41
20.197060346603394,2.53,-0.96,-0.82,2.82
20.207202434539795,2.88,-0.75,-1.76,3.45
20.2174813747406,3.15,-0.45,-2.68,4.16
20.227713346481323,3.29,-0.08,-3.71,4.95
20.238056421279907,3.23,0.22,-4.62,5.64
20.24809956550598,2.99,0.4,-5.23,6.03
20.261624574661255,2.65,0.61,-5.85,6.45
20.280819416046143,2.49,1.01,-6.6,7.12
20.28211736679077,2.69,1.2,-7.37,7.93
20.287636518478394,3.0,1.18,-7.94,8.56
20.297776460647583,3.23,1.09,-8.37,9.03
20.308072328567505,3.59,1.12,-8.53,9.32
20.31808352470398,3.86,1.34,-8.23,9.18
20.328474283218384,3.69,1.72,-7.63,8.64
20.338359355926514,2.69,2.09,-6.66,7.48
20.348615407943726,1.37,2.37,-5.24,5.91
20.358526468276978,0.39,2.4,-3.32,4.11
20.380810499191284,-0.41,2.05,0.26,2.1
20.38205647468567,-0.95,1.43,3.02,3.47
20.388501405715942,-0.68,0.54,5.03,5.1
20.3985493183136,0.08,-0.29,7.92,7.92
20.409435510635376,1.52,-1.71,10.23,10.48
20.41894030570984,3.56,-3.77,10.38,11.6
20.42942452430725,2.58,-4.56,9.88,11.18
20.439367532730103,-0.81,-3.49,8.11,8.86
20.449409246444702,-2.33,-2.15,6.28,7.03
20.45936346054077,-1.03,-1.99,5.51,5.94
20.4810574054718,0.26,-1.93,5.1,5.45
20.48230528831482,0.39,-0.99,4.55,4.67
20.48917841911316,-0.19,0.03,3.74,3.74
20.4993953704834,-0.39,0.35,2.89,2.93
20.509413480758667,-0.14,0.1,2.03,2.03
20.519928455352783,0.05,-0.21,1.26,1.27
20.53086829185486,0.24,-0.25,0.76,0.83
20.54002833366394,0.6,-0.24,0.29,0.7
20.55011534690857,1.01,-0.24,-0.36,1.09
20.56007742881775,1.31,-0.19,-1.1,1.72
20.58404541015625,1.41,-0.21,-1.71,2.22
20.585285425186157,1.04,-0.15,-2.23,2.46
20.58988642692566,0.65,0.21,-3.24,3.31
20.600192308425903,0.52,0.41,-4.26,4.31
20.61018943786621,0.42,0.5,-5.02,5.06
20.6207754611969,0.67,0.84,-4.97,5.08
20.63079857826233,1.31,1.15,-4.79,5.09
20.640860319137573,1.82,1.11,-5.25,5.66
20.651110410690308,1.79,1.06,-5.49,5.87
20.660744428634644,1.48,1.13,-5.46,5.76
20.681389570236206,0.93,1.19,-5.26,5.47
20.682657480239868,0.09,1.18,-4.64,4.78
20.69090437889099,-0.7,0.86,-3.95,4.1
20.700743436813354,-0.22,-0.86,-4.17,4.26
20.71091341972351,-1.0,-0.19,-2.04,2.27
20.72146439552307,-2.4,1.07,-0.83,2.75
20.73120141029358,-1.96,0.63,0.46,2.1
20.741408586502075,0.74,-0.18,1.51,1.69
20.75526452064514,1.21,-0.91,2.39,2.82
20.76184844970703,0.62,-1.09,2.91,3.16
20.782764434814453,0.75,-1.29,3.56,3.86
20.78398823738098,0.97,-1.51,4.52,4.86
20.79144549369812,1.32,-1.52,5.73,6.07
20.80163025856018,1.22,-1.59,6.48,6.78
20.812097311019897,0.69,-1.86,6.74,7.02
20.822057485580444,0.3,-2.2,6.53,6.89
20.83218026161194,-0.03,-2.24,6.3,6.68
20.842133283615112,-0.32,-2.15,6.12,6.49
20.85605239868164,-0.29,-2.03,5.94,6.28
20.88223624229431,0.24,-1.81,5.77,6.05
20.88362431526184,0.98,-1.68,5.24,5.58
20.88482356071472,1.58,-1.6,4.18,4.74
20.89212727546692,1.93,-1.5,2.87,3.76
20.90237045288086,2.18,-1.3,1.48,2.93
20.912652254104614,2.31,-0.91,-0.05,2.48
20.922931432724,2.3,-0.65,-1.54,2.84
20.933112382888794,2.29,-0.39,-2.97,3.77
20.94311237335205,2.16,-0.12,-4.35,4.85
20.956594467163086,1.52,0.34,-5.13,5.36
20.982596397399902,0.81,0.86,-5.53,5.65
20.984082460403442,0.63,0.95,-5.69,5.8
20.98530340194702,0.8,0.6,-5.73,5.81
20.99297833442688,0.67,-0.05,-5.16,5.2
21.003116369247437,0.44,0.04,-5.38,5.39
21.013450384140015,0.44,0.25,-5.97,5.99
21.023540258407593,0.82,0.25,-6.41,6.46
21.033751249313354,1.24,0.18,-6.6,6.71
21.043911457061768,1.51,0.21,-6.61,6.78
21.058507442474365,1.96,0.45,-6.64,6.93
21.081207513809204,2.45,0.92,-6.78,7.26
21.082600355148315,2.52,1.35,-6.7,7.28
21.08385944366455,1.92,1.69,-6.04,6.55
21.09369158744812,0.78,1.89,-4.93,5.33
21.103829383850098,-0.2,1.94,-3.52,4.02
21.113927364349365,-1.81,1.71,4.98,5.56
21.124581575393677,0.46,1.03,5.17,5.29
21.134669542312622,3.27,-0.51,9.05,9.63
21.144521474838257,3.28,-1.86,11.68,12.27
21.154717445373535,2.59,-2.08,12.01,12.46
21.180737257003784,1.03,-1.52,10.86,11.01
21.182027578353882,-0.17,-0.95,9.52,9.56
21.184324502944946,-0.02,-0.73,8.29,8.32
21.194336414337158,0.03,-0.38,7.14,7.15
21.20468544960022,-0.13,0.16,6.13,6.13
21.214786291122437,-0.15,0.42,5.02,5.03
21.22515845298767,-0.25,0.11,3.21,3.22
21.23520040512085,-0.23,-0.46,1.41,1.5
21.24626135826111,0.58,-0.91,0.4,1.15
21.255104303359985,1.44,-1.09,-0.45,1.86
21.28259539604187,1.53,-1.13,-1.45,2.39
21.28402352333069,1.26,-1.13,-2.43,2.96
21.28522229194641,1.12,-1.01,-3.37,3.69
21.29565453529358,1.09,-0.77,-4.14,4.34
21.305415391921997,1.12,-0.46,-4.56,4.71
21.31535840034485,1.07,-0.14,-4.74,4.86
21.325870275497437,0.91,-0.05,-5.08,5.16
21.335663557052612,0.93,-0.05,-5.61,5.68
21.346205472946167,1.03,-0.05,-5.98,6.06
21.355852365493774,1.48,0.27,-5.71,5.9
21.380548238754272,1.53,-0.01,-6.25,6.43
21.38179039955139,1.67,-0.15,-6.9,7.1
21.385828256607056,2.13,-0.1,-7.4,7.7
21.39596152305603,2.4,0.17,-7.46,7.83
21.405993461608887,2.16,0.6,-6.95,7.3
21.41650128364563,1.21,1.03,-5.3,5.53
21.426491498947144,-1.13,1.45,-1.19,2.18
21.436652421951294,-2.08,1.73,-0.22,2.71
21.447242498397827,-2.26,1.82,1.45,3.24
21.45660138130188,-1.53,1.03,4.62,4.97
21.48112440109253,0.85,-0.41,7.42,7.47
21.48306155204773,2.69,-1.63,9.71,10.2
21.487009286880493,3.43,-2.23,11.3,12.01
21.49786639213562,2.88,-2.13,11.45,11.99
21.506847381591797,1.49,-1.59,10.17,10.4
21.516911268234253,0.28,-1.03,7.85,7.92
21.52742028236389,-0.77,-0.63,5.61,5.69
21.53749442100525,-1.36,-0.29,4.45,4.66
21.551058530807495,-1.21,-0.07,4.01,4.18
21.55737328529358,-0.57,-0.03,3.56,3.6
21.58183455467224,0.17,-0.23,2.66,2.67
21.58308744430542,0.7,-0.67,1.37,1.67
21.5872642993927,0.98,-0.99,0.09,1.39
21.59750533103943,1.19,-1.14,-1.02,1.93
21.607584238052368,1.37,-1.12,-1.91,2.6
21.618144273757935,1.53,-0.9,-2.46,3.03
21.627901315689087,1.6,-0.6,-2.88,3.34
21.63834547996521,1.49,-0.39,-3.34,3.67
21.652044534683228,1.24,-0.21,-3.78,3.98
21.65823745727539,1.03,-0.09,-4.22,4.34
21.681461572647095,0.87,-0.01,-4.63,4.71
21.682714462280273,0.98,0.18,-4.88,4.98
21.6880304813385,1.41,0.45,-5.13,5.33
21.698124408721924,1.81,0.68,-5.69,6.0
21.70828652381897,1.96,0.73,-6.33,6.66
21.718413591384888,1.88,0.74,-6.63,6.93
21.729323387145996,1.81,0.85,-6.63,6.92
21.738749265670776,1.77,1.0,-6.34,6.65
21.752543449401855,1.57,1.15,-5.57,5.9
21.758915424346924,1.16,1.3,-4.36,4.69
21.78104043006897,0.58,1.38,-3.01,3.36
21.78230357170105,-0.26,1.3,-1.31,1.86
21.78876042366028,-1.14,1.1,0.96,1.85
21.7990083694458,-1.45,0.88,3.65,4.02
21.80902338027954,-0.75,0.51,5.84,5.91
21.81952929496765,0.73,-0.61,7.92,7.97
21.830018281936646,2.22,-1.98,10.14,10.56
21.839587450027466,2.65,-2.66,11.04,11.66
21.853155374526978,1.57,-2.42,10.19,10.59
21.85965323448181,-0.11,-1.68,8.32,8.48
21.878864526748657,-0.95,-1.2,6.56,6.73
21.880102396011353,-0.8,-0.9,5.55,5.67
21.8894944190979,-0.73,-0.47,4.93,5.0
21.89964747428894,-0.78,-0.23,4.25,4.32
21.909765481948853,-0.56,-0.38,3.39,3.45
21.91990828514099,0.02,-0.66,2.4,2.48
21.930123567581177,0.66,-0.96,1.39,1.81
21.940287351608276,1.2,-1.15,0.45,1.72
21.95034432411194,1.54,-1.2,-0.39,1.99
21.960365533828735,1.83,-1.07,-1.04,2.36
21.980199575424194,2.02,-0.81,-1.59,2.69
21.981415510177612,2.04,-0.57,-2.27,3.1
21.99036741256714,2.01,-0.37,-2.84,3.49
22.000361442565918,2.01,-0.14,-3.38,3.93
22.01049256324768,1.88,0.09,-3.97,4.39
22.02061629295349,1.7,0.24,-4.57,4.88
22.03100848197937,1.73,0.27,-5.25,5.53
22.040825366973877,1.88,0.46,-5.8,6.11
22.051066398620605,1.98,0.68,-6.2,6.54
22.079026460647583,2.08,0.9,-6.57,6.94
22.0803005695343,2.13,1.06,-6.83,7.23
22.08150839805603,2.18,1.25,-6.75,7.2
22.090993404388428,2.15,1.47,-6.47,6.97
22.101166486740112,1.83,1.67,-5.92,6.41
22.111433267593384,1.31,1.76,-4.97,5.43
22.121833562850952,0.82,1.7,-3.89,4.32
22.131904363632202,0.4,1.53,-2.5,2.95
22.14171051979065,-0.18,1.34,-0.75,1.54
22.151897430419922,-0.61,1.04,1.25,1.73
22.180601358413696,-0.44,0.61,3.38,3.46
22.18203854560852,0.42,0.03,5.23,5.24
22.183233499526978,1.87,-1.32,7.39,7.73
22.19190526008606,2.57,-2.39,8.94,9.6
22.202019453048706,2.23,-2.56,9.12,9.73
22.21230936050415,0.96,-1.82,8.12,8.37
22.222344398498535,-0.38,-1.05,6.53,6.62
22.23258328437805,-0.88,-0.75,5.1,5.22
22.242404460906982,-0.93,-0.48,4.41,4.53
22.2527494430542,-1.13,-0.12,4.19,4.34
22.280112504959106,-1.31,0.03,3.87,4.08
22.281375408172607,-1.1,-0.24,3.41,3.59
22.28261637687683,-0.56,-0.67,2.67,2.8
22.292585372924805,0.02,-1.01,1.78,2.04
22.302614450454712,0.56,-1.17,0.91,1.58
22.3128764629364,1.0,-1.11,0.16,1.5
22.323297262191772,1.15,-0.96,-0.51,1.58
22.333441495895386,1.15,-0.79,-1.07,1.75
22.34789729118347,1.16,-0.58,-1.48,1.96
22.353426456451416,1.06,-0.35,-1.99,2.28
22.379104375839233,0.84,-0.19,-2.55,2.69
22.38034439086914,0.7,-0.08,-3.09,3.16
22.383153438568115,0.71,0.03,-3.57,3.64
22.393317461013794,0.79,0.12,-4.03,4.1
22.403632402420044,0.86,0.2,-4.55,4.63
22.413978338241577,1.07,0.3,-4.96,5.08
22.423856496810913,1.34,0.51,-5.17,5.36
22.434218406677246,1.56,0.72,-5.35,5.61
22.448756456375122,1.79,0.89,-5.45,5.8
22.454127550125122,2.13,1.06,-5.4,5.9
22.479655504226685,2.42,1.31,-5.37,6.03
22.480844259262085,2.52,1.46,-5.37,6.1
22.483936548233032,2.26,1.54,-4.93,5.63
22.494452238082886,1.31,1.56,-3.67,4.19
22.504618406295776,0.3,1.41,-2.04,2.49
22.514772415161133,-0.17,1.09,-0.31,1.14
22.524567365646362,-0.34,0.79,1.54,1.76
22.53493046760559,-0.46,0.47,3.53,3.59
22.550008535385132,-0.26,-0.08,5.27,5.27
22.5550754070282,0.27,-0.65,6.8,6.83
22.581440448760986,1.0,-1.16,8.13,8.27
22.58269739151001,1.52,-1.64,8.91,9.18
22.584644556045532,1.08,-1.73,8.93,9.15
22.59475541114807,0.16,-1.5,8.25,8.38
22.60489249229431,-0.8,-1.23,7.07,7.22
22.615415334701538,-1.14,-1.02,6.12,6.3
22.62510657310486,-1.1,-0.9,5.47,5.65
22.635639429092407,-1.12,-0.83,4.79,4.98
22.64920926094055,-0.93,-0.95,3.95,4.16
22.655566453933716,-0.36,-1.11,3.03,3.24
22.68001937866211,0.36,-1.23,2.16,2.51
22.681254386901855,1.05,-1.27,1.44,2.18
22.685394525527954,1.66,-1.2,0.82,2.2
22.69562840461731,2.08,-1.02,0.18,2.32
22.705655336380005,2.14,-0.87,-0.57,2.37
22.7161762714386,2.04,-0.82,-1.38,2.59
22.72603940963745,1.9,-0.76,-2.16,2.97
22.736401319503784,1.84,-0.63,-2.78,3.39
22.762051343917847,1.81,-0.42,-3.32,3.8
22.76332139968872,1.71,-0.23,-3.92,4.28
22.765923261642456,1.48,-0.09,-4.49,4.72
22.77600646018982,1.3,0.0,-5.15,5.31
22.786139249801636,1.26,0.06,-5.83,5.96
22.796537399291992,1.48,0.2,-6.21,6.38
22.80633044242859,1.74,0.47,-6.49,6.73
22.816835403442383,1.94,0.72,-6.66,6.97
22.826813459396362,2.36,0.98,-6.65,7.12
22.8371102809906,2.71,1.36,-6.54,7.2
22.84766936302185,2.69,1.59,-6.3,7.03
22.857015371322632,2.4,1.67,-5.71,6.41
22.879196405410767,1.95,1.44,-4.82,5.39
22.880434274673462,1.51,1.04,-3.92,4.32
22.886853456497192,1.12,0.73,-2.57,2.89
22.897103548049927,0.66,0.66,-0.91,1.3
22.907151460647583,0.38,0.6,0.62,0.94
22.917869329452515,0.54,0.44,2.23,2.33
22.92852544784546,0.91,0.15,3.86,3.96
22.937807321548462,1.18,-0.36,5.38,5.51
22.94769024848938,1.2,-1.07,6.96,7.14
22.957926511764526,0.83,-1.83,8.44,8.67
22.97885251045227,0.01,-2.16,9.29,9.53
22.980737447738647,-0.87,-1.9,9.5,9.72
22.98759937286377,-1.6,-1.7,9.32,9.6
22.997721433639526,-1.76,-1.5,8.8,9.09
23.007846355438232,-1.46,-1.11,7.9,8.11
23.0184485912323,-0.97,-0.68,6.98,7.07
23.028762578964233,-0.27,-0.42,5.81,5.83
23.038357496261597,0.45,-0.46,4.37,4.41
23.048527479171753,1.13,-0.64,3.0,3.26
23.058553457260132,1.77,-0.76,1.84,2.66
23.079015493392944,2.17,-0.75,0.89,2.46
23.08023238182068,2.37,-0.69,0.05,2.46
23.088375329971313,2.44,-0.59,-0.71,2.6
23.098581552505493,2.41,-0.39,-1.41,2.81
23.108640432357788,2.48,-0.09,-1.91,3.13
23.119200468063354,2.3,0.2,-2.55,3.43
23.129239320755005,2.01,0.33,-3.2,3.79
23.142945528030396,1.78,0.39,-3.83,4.24
23.162850379943848,1.61,0.49,-4.57,4.87
23.16407346725464,1.46,0.53,-5.27,5.49
23.16898536682129,1.4,0.56,-5.8,5.99
23.179049253463745,1.52,0.58,-6.16,6.37
23.18921136856079,1.76,0.65,-6.48,6.74
23.199363470077515,2.12,0.81,-6.37,6.76
23.209901571273804,2.46,0.98,-6.19,6.73
23.21978735923767,2.52,1.12,-6.08,6.67
23.229923486709595,2.55,1.2,-5.87,6.51
23.26208758354187,2.51,1.26,-5.43,6.11
23.263350248336792,2.21,1.17,-4.84,5.44
23.264561414718628,1.68,0.95,-3.97,4.41
23.26991629600525,1.15,0.7,-2.67,2.99
23.27981925010681,0.62,0.56,-0.67,1.07
23.29000449180603,0.05,0.41,1.74,1.78
23.30051040649414,-0.32,0.05,4.24,4.25
23.31156849861145,-0.28,-0.67,6.64,6.67
23.320602416992188,-0.12,-1.55,8.54,8.68
23.33086133003235,-0.37,-2.1,9.52,9.75
23.363407373428345,-0.98,-2.21,9.96,10.24
23.3653085231781,-1.19,-1.95,10.11,10.36
23.366554498672485,-0.97,-1.55,9.57,9.74
23.370420455932617,-0.73,-1.06,8.39,8.48
23.380383253097534,-0.59,-0.53,7.09,7.13
23.390764474868774,-0.62,-0.19,5.9,5.93
23.401293516159058,-0.5,-0.31,4.7,4.73
23.41122031211853,-0.24,-0.74,3.67,3.75
23.421505451202393,0.15,-1.14,2.8,3.02
23.43148636817932,0.77,-1.34,1.93,2.47
23.44691038131714,1.47,-1.27,1.15,2.25
23.451505422592163,2.0,-1.06,0.29,2.28
23.479196310043335,2.49,-0.82,-0.36,2.64
23.480664491653442,2.81,-0.46,-0.98,3.01
23.481863260269165,2.8,-0.2,-1.88,3.37
23.49147057533264,2.69,-0.03,-2.72,3.82
23.501776456832886,2.57,0.16,-3.45,4.3
23.512038469314575,2.4,0.3,-4.22,4.86
23.522124528884888,2.27,0.43,-4.83,5.35
23.532273530960083,2.4,0.6,-5.38,5.92
23.542096376419067,2.45,0.83,-5.86,6.4
23.56093740463257,2.48,0.93,-6.33,6.86
23.562164545059204,2.48,0.91,-6.8,7.29
23.571860551834106,2.51,0.84,-7.06,7.53
23.582228422164917,2.49,0.82,-7.11,7.57
23.592230558395386,2.0,0.93,-6.88,7.22
23.602867364883423,2.79,0.6,-6.43,7.03
23.61287236213684,3.42,0.37,-6.3,7.17
23.622908353805542,2.82,0.71,-5.56,6.27
23.632896423339844,2.4,1.08,-4.13,4.89
23.64281439781189,1.73,1.3,-2.79,3.53
23.665157556533813,0.95,1.07,-1.26,1.9
23.666374444961548,0.16,0.57,1.04,1.19
23.672725439071655,-0.3,0.0,3.35,3.36
23.68276333808899,-0.3,-0.79,4.94,5.01
23.693262338638306,-0.13,-1.59,5.76,5.97
23.70330548286438,-0.19,-2.11,5.63,6.01
23.71352243423462,-0.01,-2.23,5.28,5.73
23.723466396331787,0.72,-1.91,5.26,5.64
23.733577489852905,0.74,-1.3,5.29,5.49
23.761000394821167,-0.02,-0.58,5.8,5.82
23.76225447654724,-0.63,-0.18,6.37,6.4
23.76347541809082,-1.3,-0.04,7.07,7.18
23.773418426513672,-2.03,-0.09,7.78,8.04
23.783721446990967,-2.34,-0.38,7.84,8.19
23.79366636276245,-1.96,-0.75,7.3,7.59
23.804190397262573,-1.14,-1.07,6.19,6.38
23.814427375793457,-0.37,-1.27,4.64,4.82
23.824406385421753,0.42,-1.26,3.34,3.59
23.834734439849854,1.21,-1.05,2.09,2.63
23.86170244216919,1.76,-0.85,0.86,2.13
23.862956285476685,2.1,-0.7,-0.19,2.22
23.86420440673828,2.22,-0.53,-1.12,2.54
23.874192476272583,2.24,-0.34,-1.89,2.95
23.88437056541443,2.23,-0.13,-2.42,3.29
23.89447331428528,2.21,0.14,-2.76,3.53
23.905153512954712,2.01,0.39,-3.08,3.69
23.915237426757812,1.75,0.56,-3.42,3.88
23.925113439559937,1.52,0.67,-3.81,4.15
23.939908266067505,1.45,0.71,-4.06,4.36
23.96152949333191,1.43,0.76,-4.3,4.59
23.962762355804443,1.38,0.69,-4.6,4.85
23.96492648124695,1.34,0.51,-4.97,5.17
23.974895238876343,1.3,0.34,-5.25,5.41
23.98535132408142,1.36,0.26,-5.44,5.61
23.995112419128418,1.41,0.27,-5.6,5.78
24.005898237228394,1.49,0.26,-5.74,5.93
24.01569938659668,1.67,0.21,-5.88,6.11
24.02598738670349,2.22,0.22,-5.57,6.0
24.04064631462097,2.94,0.59,-4.93,5.77
24.060807466506958,3.08,0.99,-4.29,5.37
24.062056303024292,2.48,1.19,-3.43,4.39
24.065794467926025,1.76,0.94,-2.17,2.94
24.076354265213013,1.13,0.47,0.02,1.22
24.08586835861206,0.54,-0.03,2.39,2.45
24.09592342376709,-0.06,-0.54,4.82,4.85
24.106595277786255,-0.76,-1.03,7.4,7.5
24.116596460342407,-1.17,-1.39,9.64,9.8
24.127455472946167,-1.2,-1.55,11.14,11.31
24.139960527420044,-1.32,-1.48,11.63,11.79
24.160813570022583,-1.59,-1.19,11.14,11.31
24.16265559196472,-1.66,-0.94,9.98,10.16
24.16654658317566,-1.41,-0.75,8.73,8.87
24.178674459457397,-1.02,-0.55,7.39,7.48
24.1866352558136,-0.61,-0.64,5.79,5.85
24.196653366088867,-0.19,-1.0,4.29,4.4
24.207545518875122,0.4,-1.3,3.02,3.31
24.217177391052246,1.17,-1.49,1.97,2.73
24.227309465408325,1.83,-1.47,1.03,2.56
24.24095845222473,2.34,-1.26,0.17,2.66
24.26107954978943,2.7,-0.94,-0.74,2.95
24.262327432632446,2.84,-0.7,-1.66,3.36
24.267138242721558,2.75,-0.48,-2.68,3.86
24.27707839012146,2.52,-0.33,-3.58,4.39
24.287473440170288,2.26,-0.23,-4.28,4.84
24.29742741584778,2.02,-0.18,-4.95,5.34
24.308002471923828,1.77,-0.15,-5.62,5.89
24.317930459976196,1.58,-0.12,-6.09,6.29
24.328189373016357,1.8,-0.03,-6.44,6.68
24.337875366210938,2.34,0.17,-6.78,7.17
24.360755443572998,2.6,0.57,-6.85,7.34
24.362013578414917,2.76,0.9,-6.97,7.55
24.367806434631348,2.94,1.09,-7.08,7.74
24.37810444831848,3.11,1.25,-6.87,7.64
24.388087511062622,3.01,1.41,-6.45,7.25
24.39864754676819,2.7,1.35,-5.71,6.45
24.408872365951538,2.27,1.12,-4.77,5.4
24.41866636276245,1.82,0.83,-3.91,4.39
24.428810358047485,1.67,0.41,-3.02,3.47
24.438636541366577,1.71,-0.07,-1.78,2.46
24.460434436798096,1.68,-0.35,-0.45,1.77
24.46169137954712,1.66,-0.43,1.08,2.02
24.468531370162964,1.77,-0.36,3.51,3.94
24.478743314743042,1.91,-0.4,5.4,5.74
24.488840341567993,1.68,-0.63,6.25,6.5
24.49938440322876,0.74,-0.79,6.68,6.76
24.5103542804718,-1.19,-0.45,7.77,7.87
24.519468545913696,-3.92,1.25,12.28,12.95
24.529547452926636,-3.53,0.98,13.96,14.43
24.539302587509155,-0.71,-1.06,12.13,12.19
24.56019639968872,1.28,-2.54,8.05,8.53
24.561464548110962,1.14,-2.89,3.41,4.61
24.569297552108765,0.63,-2.38,0.77,2.57
24.579476356506348,0.08,-1.43,0.1,1.43
24.58954644203186,-0.27,-0.53,-0.04,0.59
24.60009455680847,-0.02,-0.1,-0.29,0.3
24.610114336013794,0.31,-0.02,-0.93,0.98
24.620100259780884,0.17,-0.1,-1.76,1.77
24.630284547805786,0.09,-0.17,-2.4,2.4
24.640207529067993,0.16,-0.22,-2.62,2.63
24.661962270736694,0.37,-0.17,-2.51,2.54
24.66321039199829,0.58,-0.03,-2.41,2.47
24.670010328292847,0.68,0.01,-2.59,2.67
24.680132389068604,0.62,-0.03,-2.84,2.9
24.690321445465088,0.57,0.01,-2.63,2.69
24.70077633857727,0.52,0.23,-2.09,2.16
24.71066451072693,0.39,0.47,-1.57,1.68
24.720762491226196,0.26,0.55,-1.26,1.39
24.734588384628296,0.06,0.5,-1.16,1.26
24.740939378738403,-0.12,0.36,-1.1,1.16
24.761573553085327,0.06,0.4,-0.57,0.69
24.762792348861694,0.39,0.77,0.21,0.88
24.77077031135559,0.35,0.99,0.8,1.32
24.781033277511597,0.17,0.95,1.17,1.51
24.79105830192566,0.1,0.65,1.22,1.38
24.801583528518677,0.05,0.34,1.27,1.31
24.81179928779602,-0.12,0.07,1.17,1.17
24.82156729698181,-0.33,-0.16,0.82,0.89
24.835622549057007,-0.37,-0.38,0.32,0.61
24.86013150215149,-0.3,-0.49,-0.22,0.61
24.861960411071777,-0.09,-0.54,-0.65,0.84
24.8631854057312,0.29,-0.39,-0.82,0.95
24.87156844139099,0.64,-0.06,-0.88,1.08
24.881643533706665,0.82,0.25,-1.0,1.31
24.892104387283325,0.77,0.34,-1.16,1.43
24.90228247642517,0.52,0.19,-1.23,1.34
24.912402391433716,0.29,0.0,-1.14,1.17
24.92223858833313,0.01,-0.13,-0.96,0.96
24.93751358985901,-0.13,-0.23,-0.8,0.84
24.96235728263855,-0.17,-0.21,-0.56,0.62
24.963639497756958,-0.37,-0.05,-0.23,0.43
24.964840412139893,-0.57,0.12,0.28,0.64
24.972522497177124,-0.65,0.22,0.81,1.06
24.982495546340942,-0.66,0.16,1.2,1.37
24.992831468582153,-0.64,0.03,1.46,1.59
25.002931356430054,-0.62,-0.17,1.41,1.54
25.01305842399597,-0.62,-0.35,1.18,1.37
25.023000478744507,-0.46,-0.43,0.97,1.15
25.036757469177246,-0.26,-0.29,0.86,0.94
25.061967372894287,-0.15,-0.11,0.86,0.87
25.063242435455322,-0.14,-0.01,0.99,0.99
25.064456462860107,-0.19,0.06,1.24,1.25
25.07320547103882,-0.2,-0.01,1.45,1.46
25.083271265029907,-0.22,-0.17,1.63,1.65
25.093411445617676,-0.18,-0.26,1.8,1.82
25.103854417800903,0.14,-0.21,2.04,2.05
25.11408042907715,0.43,-0.04,2.36,2.39
25.12377429008484,0.53,0.11,2.7,2.75
25.133700370788574,0.53,0.11,2.74,2.79
25.160091400146484,0.26,-0.04,2.43,2.44
25.16140627861023,0.0,-0.25,1.98,1.99
25.16370439529419,-0.05,-0.41,1.54,1.59
25.173858404159546,0.29,-0.33,1.25,1.32
25.183966398239136,0.64,-0.21,0.83,1.06
25.194366455078125,0.7,-0.12,0.39,0.81
25.20434832572937,0.63,-0.06,0.06,0.63
25.214608430862427,0.72,-0.02,-0.12,0.73
25.224457502365112,0.87,-0.01,-0.17,0.88
25.234593391418457,0.89,0.09,-0.1,0.9
25.260889291763306,0.75,0.17,0.01,0.76
25.26219630241394,0.65,0.07,0.1,0.66
25.264424562454224,0.69,-0.15,0.11,0.71
25.275248289108276,0.78,-0.26,0.22,0.85
25.28462052345276,0.87,-0.33,0.18,0.94
25.295257329940796,1.03,-0.39,0.1,1.1
25.305288553237915,1.08,-0.35,-0.06,1.13
25.315393447875977,0.91,-0.38,-0.5,1.1
25.32650351524353,0.81,-0.39,-0.87,1.25
25.335142374038696,0.75,-0.28,-1.16,1.4
25.36148238182068,0.68,-0.22,-1.5,1.66
25.36296844482422,0.56,-0.21,-1.9,1.99
25.365318536758423,0.36,-0.25,-2.35,2.39
25.375269412994385,0.19,-0.39,-2.81,2.84
25.385908365249634,0.21,-0.6,-3.28,3.34
25.396016359329224,0.39,-0.77,-3.66,3.76
25.40557837486267,0.66,-0.77,-3.92,4.04
25.41599726676941,0.96,-0.63,-4.06,4.21
25.426432371139526,1.42,-0.33,-4.02,4.27
25.436161279678345,1.6,-0.01,-4.16,4.45
25.461348295211792,1.56,0.1,-4.51,4.77
25.462823390960693,1.36,0.06,-4.94,5.12
25.46599841117859,1.1,-0.11,-5.27,5.38
25.476165533065796,0.86,-0.38,-5.27,5.35
25.486632585525513,0.87,-0.59,-4.67,4.78
25.496586561203003,0.81,-0.44,-3.76,3.87
25.50660252571106,0.55,-0.18,-2.77,2.82
25.51695442199707,0.34,0.01,-1.28,1.32
25.53100848197937,0.09,0.1,-0.07,0.15
25.536821365356445,-0.13,-0.04,0.71,0.72
25.559232473373413,-0.21,-0.26,1.5,1.53
25.560534238815308,-0.33,-0.4,2.05,2.11
25.566826581954956,-0.21,-0.53,2.67,2.73
25.576963424682617,0.65,-0.25,4.15,4.2
25.58740258216858,1.39,0.05,5.28,5.46
25.597548246383667,1.37,-0.02,5.61,5.77
25.60731339454651,0.78,-0.07,5.47,5.52
25.61750841140747,0.01,0.05,5.11,5.11
25.63171935081482,-0.43,0.16,4.9,4.92
25.637564420700073,-0.64,0.32,4.78,4.83
25.661447286605835,-0.86,0.38,4.35,4.45
25.662683248519897,-0.81,0.28,3.71,3.8
25.66737151145935,-0.42,0.2,3.04,3.07
25.677661418914795,-0.02,0.13,2.33,2.33
25.687702417373657,0.41,0.07,1.89,1.93
25.698145389556885,0.72,0.07,1.71,1.85
25.708901405334473,0.77,-0.13,1.4,1.6
25.71836829185486,0.66,-0.36,0.92,1.18
25.73190426826477,0.48,-0.49,0.47,0.83
25.738438367843628,0.31,-0.43,0.27,0.59
25.760069370269775,0.26,-0.22,0.39,0.51
25.761332273483276,0.28,-0.03,0.7,0.75
25.768104314804077,0.16,0.0,1.27,1.28
25.778392553329468,-0.05,-0.01,1.66,1.66
25.78843855857849,-0.16,-0.02,2.3,2.3
25.798975467681885,-0.27,-0.2,3.23,3.24
25.809086561203003,-0.23,-0.56,3.56,3.61
25.819077253341675,0.0,-0.79,3.4,3.49
25.83289933204651,0.51,-0.73,3.15,3.27
25.839000463485718,1.02,-0.62,2.55,2.81
25.858596563339233,1.4,-0.62,1.67,2.26
25.859806299209595,1.74,-0.63,0.85,2.03
25.868871450424194,2.06,-0.51,0.24,2.13
25.87911343574524,2.19,-0.39,-0.5,2.27
25.88912844657898,2.14,-0.41,-1.27,2.52
25.899874448776245,2.07,-0.38,-1.8,2.76
25.909525394439697,2.05,-0.28,-2.25,3.05
25.9196035861969,2.01,-0.17,-2.7,3.37
25.929868459701538,1.88,-0.06,-3.25,3.75
25.94003438949585,1.71,-0.01,-3.81,4.17
25.959832429885864,1.55,0.07,-4.3,4.57
25.961053371429443,1.46,0.1,-4.73,4.95
25.969785451889038,1.58,0.1,-5.01,5.25
25.980106353759766,1.83,0.21,-5.13,5.45
25.990281343460083,1.91,0.49,-5.03,5.4
26.00036931037903,1.71,0.69,-4.89,5.22
26.010517358779907,1.43,0.61,-4.87,5.11
26.020576238632202,1.19,0.35,-4.76,4.91
26.030609369277954,0.92,0.09,-4.53,4.62
26.059478521347046,0.92,-0.15,-4.18,4.28
26.06093740463257,1.29,-0.3,-3.48,3.72
26.062159299850464,1.4,-0.08,-2.74,3.07
26.07033133506775,1.16,0.22,-2.32,2.6
26.080617427825928,1.05,0.17,-2.11,2.36
26.090861558914185,1.21,0.12,-1.5,1.93
26.101422548294067,1.16,0.27,-0.96,1.52
26.111096382141113,0.95,0.23,-0.72,1.21
26.121070384979248,0.74,-0.06,-0.4,0.84
26.131203413009644,0.38,-0.43,0.03,0.57
26.15919327735901,0.18,-0.73,0.55,0.93
26.16049027442932,0.2,-0.65,1.44,1.59
26.16170334815979,0.3,-0.44,2.1,2.16
26.17125940322876,0.16,-0.49,2.37,2.42
26.18135952949524,0.1,-0.37,2.96,2.98
26.1917564868927,0.07,-0.15,3.51,3.51
26.20167636871338,-0.09,-0.2,3.64,3.64
26.211987257003784,-0.3,-0.37,3.62,3.65
26.221834421157837,-0.44,-0.33,3.8,3.83
26.231916427612305,-0.3,-0.19,4.04,4.05
26.258987426757812,-0.25,-0.04,4.21,4.21
26.260253429412842,-0.44,0.02,4.09,4.11
26.26178741455078,-0.61,-0.11,3.81,3.86
26.2718722820282,-0.6,-0.2,3.56,3.61
26.28199028968811,-0.4,-0.14,3.32,3.34
26.292279481887817,-0.28,-0.2,2.77,2.79
26.302740335464478,-0.21,-0.39,2.06,2.1
26.312755346298218,-0.01,-0.49,1.52,1.59
26.328068494796753,0.27,-0.38,1.03,1.13
26.332727432250977,0.31,-0.35,0.4,0.61
26.358983278274536,0.23,-0.43,-0.24,0.54
26.36029839515686,0.21,-0.42,-0.49,0.67
26.362532377243042,0.45,-0.21,0.27,0.56
26.37270951271057,0.83,0.07,0.96,1.27
26.382808446884155,0.76,0.18,0.92,1.2
26.39325737953186,0.32,0.08,0.46,0.56
26.403234243392944,-0.06,-0.05,0.04,0.08
26.413459539413452,-0.27,-0.14,-0.1,0.32
26.429676294326782,-0.19,0.02,0.56,0.59
26.433518409729004,0.36,0.5,1.83,1.93
26.45828938484192,0.78,0.87,2.59,2.84
26.459511518478394,0.87,0.87,2.79,3.04
26.463513374328613,0.71,0.55,2.56,2.71
26.473812341690063,0.49,0.15,2.03,2.09
26.48359227180481,0.47,-0.18,1.44,1.52
26.49368643760681,0.56,-0.47,0.73,1.03
26.504621267318726,0.82,-0.62,0.03,1.02
26.514270544052124,1.42,-0.4,-0.31,1.5
26.528278589248657,1.82,0.02,-0.65,1.93
26.534196376800537,1.77,0.27,-0.94,2.02
26.558786392211914,1.77,0.41,-1.0,2.07
26.560129404067993,1.6,0.38,-1.21,2.04
26.564099550247192,1.28,0.2,-1.11,1.7
26.5741765499115,1.02,0.02,-0.93,1.38
26.584502458572388,0.77,-0.17,-0.94,1.22
26.59471845626831,0.58,-0.26,-0.73,0.96
26.604868412017822,0.46,-0.23,-0.5,0.71
26.614880323410034,0.41,-0.2,-0.49,0.66
26.629830360412598,0.46,-0.18,-0.5,0.7
26.63506841659546,0.48,-0.11,-0.66,0.82
26.66049027442932,0.4,-0.06,-0.99,1.06
26.661734342575073,0.44,-0.05,-1.26,1.33
26.665037393569946,0.42,-0.06,-1.5,1.55
26.675047397613525,0.3,-0.11,-1.85,1.87
26.6850802898407,0.1,-0.27,-2.43,2.44
26.695549249649048,-0.02,-0.47,-3.1,3.13
26.70569634437561,0.01,-0.61,-3.62,3.67
26.715527296066284,0.08,-0.6,-4.0,4.04
26.742663383483887,0.24,-0.59,-4.21,4.25
26.743916273117065,0.62,-0.49,-4.11,4.18
26.7455894947052,1.03,-0.22,-3.96,4.09
26.755375385284424,1.48,0.01,-3.86,4.13
26.765515565872192,1.72,0.11,-3.85,4.21
26.775678396224976,1.77,0.07,-4.01,4.38
26.786471366882324,1.71,-0.07,-4.33,4.65
26.79608130455017,1.6,-0.34,-4.47,4.75
26.80621337890625,1.5,-0.53,-4.1,4.39
26.81652855873108,1.32,-0.52,-3.45,3.73
26.841800451278687,1.18,-0.4,-2.59,2.87
26.84304928779602,1.03,-0.17,-1.14,1.54
26.846107244491577,0.79,0.13,0.2,0.82
26.85662341117859,0.55,0.36,1.28,1.43
26.866408586502075,0.02,0.44,2.34,2.38
26.876493453979492,-0.48,0.15,3.11,3.15
26.886911392211914,-0.69,-0.4,3.66,3.74
26.89699625968933,-0.82,-0.8,4.63,4.76
26.90769338607788,-0.71,-1.0,5.41,5.54
26.9173583984375,-0.33,-0.95,5.65,5.73
26.92730450630188,0.32,-0.56,5.57,5.6
26.937097311019897,0.73,-0.14,4.93,4.98
26.95812439918518,0.66,0.17,4.07,4.12
26.959400415420532,0.69,0.55,3.53,3.63
26.96716856956482,0.5,0.83,3.04,3.19
26.97720742225647,0.14,0.79,2.64,2.75
26.987656354904175,-0.16,0.58,2.28,2.35
26.99767231941223,-0.27,0.32,1.96,2.0
27.00790047645569,-0.15,0.1,1.67,1.67
27.01777958869934,-0.04,-0.06,1.24,1.24
27.027830362319946,0.12,-0.18,0.82,0.84
27.03784942626953,0.31,-0.21,0.41,0.55
27.057130575180054,0.37,-0.18,0.06,0.41
27.05838131904602,0.34,-0.11,-0.11,0.37
27.06784439086914,0.29,0.01,0.05,0.29
27.07787537574768,0.21,0.01,0.22,0.3
27.088001489639282,0.19,-0.1,0.59,0.62
27.098711252212524,-0.01,-0.25,0.82,0.85
27.10847043991089,-0.4,-0.29,1.17,1.27
27.122071504592896,-0.49,-0.36,1.52,1.63
27.14167547225952,-0.36,-0.32,2.01,2.06
27.1429123878479,-0.17,-0.17,2.45,2.46
27.14840841293335,0.03,-0.18,2.57,2.57
27.158395528793335,0.18,-0.26,2.45,2.47
27.168591260910034,0.35,-0.35,2.25,2.3
27.179036378860474,0.61,-0.35,2.06,2.17
27.189441442489624,0.88,-0.3,1.86,2.07
27.199244260787964,1.11,-0.2,1.67,2.01
27.209217309951782,1.14,-0.2,1.36,1.78
27.241787433624268,1.16,-0.34,0.86,1.48
27.24303650856018,1.33,-0.42,0.48,1.47
27.24423336982727,1.46,-0.38,0.1,1.51
27.249051332473755,1.43,-0.38,-0.43,1.54
27.25922656059265,1.43,-0.38,-0.92,1.74
27.269424438476562,1.49,-0.31,-1.27,1.98
27.279844522476196,1.59,-0.2,-1.65,2.3
27.29079246520996,1.68,-0.07,-1.97,2.59
27.299991369247437,1.6,0.01,-2.4,2.88
27.31039547920227,1.35,0.03,-2.88,3.18
27.344300508499146,1.11,0.02,-3.4,3.57
27.345529317855835,0.81,-0.09,-3.99,4.07
27.34674048423767,0.74,-0.27,-4.55,4.61
27.349879503250122,1.02,-0.37,-4.73,4.85
27.360034465789795,1.13,-0.05,-4.4,4.54
27.370128393173218,0.96,0.49,-3.84,3.98
27.380613565444946,0.69,0.71,-3.58,3.71
27.390737295150757,0.51,0.47,-3.48,3.54
27.40058732032776,0.29,0.12,-3.28,3.29
27.41089940071106,0.06,-0.13,-2.98,2.98
27.426128387451172,-0.03,-0.35,-2.81,2.83
27.431156396865845,0.14,-0.67,-2.84,2.92
27.459614515304565,0.54,-0.91,-2.94,3.12
27.460987329483032,1.42,-0.77,-2.74,3.18
27.462189435958862,2.24,-0.14,-2.71,3.51
27.470696449279785,2.21,0.33,-3.07,3.79
27.480960369110107,2.06,0.34,-3.48,4.05
27.491027355194092,1.52,0.25,-3.08,3.44
27.501798391342163,0.72,0.23,-2.1,2.23
27.511651277542114,0.22,0.1,-1.04,1.06
27.52140736579895,0.04,0.05,0.44,0.44
27.540581464767456,0.02,0.09,1.73,1.73
27.54181456565857,-0.15,0.0,2.79,2.79
27.55128240585327,-0.13,0.04,4.12,4.12
27.561625242233276,0.04,0.08,5.16,5.16
27.571614503860474,0.06,-0.19,5.53,5.53
27.58210039138794,-0.07,-0.4,5.57,5.58
27.59218955039978,-0.08,-0.35,5.54,5.55
27.60201144218445,0.03,-0.4,5.26,5.27
27.612565279006958,-0.1,-0.58,4.55,4.58
27.622166395187378,-0.33,-0.68,3.58,3.65
27.642019510269165,-0.41,-0.67,2.73,2.84
27.64324140548706,-0.18,-0.41,2.09,2.13
27.652153253555298,0.18,-0.13,1.33,1.34
27.662299394607544,0.32,-0.05,0.44,0.54
27.672869443893433,0.26,-0.1,-0.33,0.43
27.68298840522766,0.23,-0.19,-0.85,0.9
27.692947387695312,0.21,-0.16,-1.11,1.14
27.702938318252563,0.07,-0.07,-1.19,1.19
27.71352458000183,-0.05,-0.04,-1.11,1.11
27.741958379745483,-0.1,-0.04,-0.98,0.98
27.743151426315308,-0.16,-0.02,-0.82,0.83
27.744351387023926,-0.1,0.1,-0.52,0.53
27.752875566482544,-0.03,0.26,-0.21,0.33
27.763028383255005,-0.12,0.32,0.2,0.39
27.772955417633057,-0.15,0.25,0.73,0.78
27.783519506454468,-0.08,0.12,1.1,1.1
27.793639421463013,0.01,0.09,1.44,1.44
27.803495407104492,0.07,0.07,1.58,1.58
27.813737392425537,0.03,0.04,1.52,1.52
27.83946943283081,0.06,0.01,1.5,1.5
27.840712308883667,0.14,0.05,1.56,1.56
27.84343457221985,0.19,0.05,1.78,1.79
27.853516340255737,0.1,0.0,1.84,1.84
27.863808393478394,0.06,-0.06,1.9,1.9
27.873907327651978,0.07,-0.17,1.94,1.94
27.884400367736816,-0.02,-0.34,1.86,1.89
27.894562482833862,-0.07,-0.43,1.78,1.83
27.904348373413086,0.04,-0.46,1.65,1.71
27.919538259506226,0.29,-0.36,1.51,1.57
27.940983533859253,0.53,-0.23,1.33,1.45
27.942214250564575,0.72,-0.08,1.15,1.35
27.94429039955139,0.83,0.05,0.93,1.24
27.954416513442993,0.81,0.13,0.83,1.16
27.964447259902954,0.89,0.13,0.75,1.17
27.97500252723694,0.77,0.14,0.75,1.08
27.984864473342896,0.45,0.07,0.92,1.02
27.99528741836548,0.37,-0.19,0.85,0.94
28.00522541999817,0.51,-0.43,0.8,1.04
28.019996404647827,0.68,-0.49,0.67,1.07
28.04028630256653,0.89,-0.48,0.39,1.08
28.041627407073975,1.2,-0.41,0.1,1.27
28.04500651359558,1.26,-0.35,-0.15,1.31
28.055593252182007,1.23,-0.28,-0.38,1.31
28.06529140472412,1.16,-0.25,-0.62,1.33
28.075724363327026,0.99,-0.21,-0.86,1.32
28.085639238357544,0.89,-0.24,-1.17,1.48
28.095837354660034,0.87,-0.22,-1.41,1.67
28.10641646385193,0.87,-0.16,-1.69,1.9
28.1203773021698,0.78,-0.18,-2.0,2.15
28.13982653617859,0.7,-0.26,-2.28,2.39
28.141079425811768,0.52,-0.33,-2.7,2.76
28.14574933052063,0.34,-0.45,-3.2,3.24
28.15587544441223,0.43,-0.66,-3.59,3.67
28.165979385375977,0.69,-0.78,-3.84,3.97
28.17603635787964,1.15,-0.59,-3.81,4.02
28.18649458885193,1.6,-0.11,-3.7,4.03
28.19672131538391,1.6,0.3,-3.89,4.21
28.206681489944458,1.36,0.38,-4.16,4.39
28.220394372940063,0.92,0.32,-4.34,4.44
28.239124536514282,0.48,0.13,-4.43,4.45
28.240378379821777,0.24,-0.18,-4.36,4.37
28.246471405029297,0.22,-0.55,-4.03,4.07
28.25649333000183,0.61,-0.65,-3.32,3.43
28.266785383224487,1.15,-0.3,-2.47,2.74
28.276822328567505,1.3,0.15,-1.91,2.31
28.287230253219604,0.96,0.29,-1.46,1.77
28.29734444618225,0.8,0.27,-0.9,1.23
28.307475328445435,0.61,0.07,-0.63,0.87
28.317246437072754,0.48,-0.32,-0.41,0.7
28.341172456741333,0.45,-0.66,0.04,0.79
28.3426513671875,0.43,-0.87,0.26,1.0
28.347350358963013,0.64,-0.8,0.65,1.21
28.35741925239563,1.07,-0.36,1.15,1.61
28.367875337600708,1.13,0.02,1.21,1.65
28.378199338912964,1.1,0.26,1.54,1.91
28.387863397598267,1.0,0.68,2.3,2.59
28.39844846725464,0.55,0.81,2.79,2.95
28.40854835510254,0.21,0.56,3.16,3.21
28.418342351913452,-0.05,0.35,3.64,3.65
28.441153287887573,-0.37,0.2,3.88,3.9
28.44239830970764,-0.56,0.11,4.02,4.06
28.44791841506958,-0.34,0.28,4.02,4.04
28.458370447158813,-0.26,0.42,3.65,3.68
28.468597412109375,-0.12,0.26,3.46,3.47
28.47855043411255,0.17,0.04,3.48,3.48
28.48945450782776,0.27,0.03,3.3,3.31
28.49906849861145,0.14,-0.03,2.79,2.79
28.509255409240723,0.02,-0.25,2.15,2.16
28.518771409988403,-0.15,-0.36,1.7,1.74
28.54027533531189,-0.18,-0.32,1.47,1.51
28.541752576828003,-0.01,-0.3,1.4,1.43
28.548769235610962,0.12,-0.35,1.4,1.44
28.558947324752808,-0.09,-0.48,1.62,1.69
28.56933331489563,-0.34,-0.69,2.02,2.16
28.579878568649292,-0.38,-0.81,2.31,2.47
28.58964228630066,-0.41,-0.88,2.45,2.63
28.5997793674469,-0.39,-0.85,2.49,2.65
28.610074281692505,-0.24,-0.77,2.49,2.61
28.619866371154785,0.07,-0.67,2.45,2.54
28.640620470046997,0.49,-0.55,2.4,2.51
28.641860246658325,0.72,-0.29,2.66,2.77
28.64955735206604,0.87,-0.06,2.92,3.04
28.659634351730347,1.07,-0.11,2.89,3.08
28.67017436027527,1.24,-0.3,2.49,2.79
28.680111408233643,1.36,-0.48,1.75,2.26
28.69025731086731,1.72,-0.58,1.09,2.11
28.700125455856323,2.1,-0.51,0.43,2.2
28.714195489883423,2.24,-0.44,-0.22,2.29
28.72032332420349,2.27,-0.42,-0.85,2.46
28.74082636833191,2.19,-0.39,-1.53,2.69
28.74205446243286,2.08,-0.34,-2.06,2.94
28.75027632713318,2.12,-0.14,-2.34,3.16
28.760300397872925,2.01,0.09,-2.72,3.38
28.770430326461792,1.82,0.17,-3.21,3.69
28.780981302261353,1.57,0.2,-3.56,3.89
28.790876388549805,1.33,0.25,-3.85,4.08
28.801159381866455,1.12,0.26,-4.08,4.23
28.814568281173706,1.04,0.26,-4.03,4.17
28.839574575424194,1.03,0.33,-3.73,3.88
28.841092348098755,0.96,0.41,-3.65,3.79
28.842316389083862,0.95,0.28,-3.69,3.82
28.85111927986145,1.02,0.15,-3.66,3.8
28.861164331436157,1.01,0.14,-3.5,3.64
28.87237858772278,0.92,0.2,-3.48,3.6
28.88143754005432,0.77,0.2,-3.53,3.61
28.891704320907593,0.57,0.13,-3.47,3.51
28.901658296585083,0.34,-0.03,-3.41,3.42
28.916760444641113,0.26,-0.27,-3.43,3.45
28.940656423568726,0.39,-0.52,-3.28,3.34
28.942184448242188,0.66,-0.57,-2.98,3.1
28.943599462509155,0.94,-0.46,-2.76,2.95
28.951829433441162,1.39,-0.26,-2.44,2.82
28.96186852455139,1.3,0.02,-1.77,2.19
28.97220253944397,0.71,0.24,-0.97,1.22
28.98227334022522,0.3,0.11,-0.34,0.46
28.99241542816162,0.04,-0.33,0.19,0.38
29.002562284469604,-0.23,-0.86,0.7,1.13
29.01738739013672,-0.34,-1.23,1.25,1.78
29.03954529762268,-0.32,-1.27,2.17,2.53
29.041028261184692,-0.31,-1.2,2.7,2.97
29.042356252670288,-0.29,-1.3,2.65,2.96
29.052515268325806,-0.03,-1.21,2.45,2.73
29.06263542175293,0.27,-0.82,2.27,2.42
29.072946310043335,0.42,-0.39,2.18,2.25
29.08316731452942,0.48,-0.01,2.16,2.21
29.093265295028687,0.35,0.31,2.35,2.39
29.103107452392578,0.0,0.45,2.56,2.59
29.113303422927856,-0.23,0.55,2.92,2.98
29.139901399612427,-0.38,0.66,3.42,3.5
29.14137840270996,-0.67,0.63,4.05,4.15
29.14323925971985,-0.67,0.35,4.77,4.82
29.153295278549194,-0.34,-0.03,5.38,5.39
29.163387537002563,0.05,-0.2,5.67,5.67
29.17377257347107,0.25,-0.33,5.3,5.31
29.183879375457764,0.31,-0.49,4.43,4.46
29.194027423858643,0.41,-0.47,3.52,3.57
29.20403742790222,0.65,-0.25,2.63,2.72
29.21389937400818,0.72,-0.05,1.79,1.93
29.238815546035767,0.61,0.06,1.2,1.34
29.240045309066772,0.59,0.12,1.0,1.16
29.243802309036255,0.71,0.19,1.05,1.28
29.254424333572388,0.85,0.24,0.98,1.31
29.264118432998657,0.92,0.18,0.76,1.2
29.27462124824524,1.01,0.12,0.52,1.14
29.284457445144653,1.14,0.11,0.29,1.18
29.29475426673889,1.16,0.06,0.06,1.16
29.305415391921997,1.15,-0.02,-0.13,1.15
29.314677476882935,1.13,-0.09,-0.21,1.15
29.339120388031006,1.05,-0.12,-0.29,1.09
29.340404272079468,1.12,-0.14,-0.38,1.19
29.3447744846344,1.19,-0.18,-0.55,1.32
29.35476541519165,1.25,-0.26,-0.84,1.52
29.364893436431885,1.31,-0.32,-1.22,1.81
29.37517738342285,1.44,-0.25,-1.36,1.99
29.385460376739502,1.59,0.02,-1.26,2.02
29.395432472229004,1.57,0.32,-1.16,1.97
29.405696392059326,1.4,0.49,-1.16,1.88
29.41542339324951,1.21,0.44,-1.38,1.88
29.439143419265747,0.99,0.33,-1.73,2.02
29.440467357635498,0.89,0.21,-1.99,2.19
29.44555640220642,0.77,0.12,-2.21,2.34
29.455475568771362,0.59,-0.01,-2.5,2.56
29.46594738960266,0.45,-0.16,-2.85,2.88
29.47623038291931,0.39,-0.32,-3.3,3.33
29.48603129386902,0.52,-0.42,-3.69,3.75
29.49623942375183,0.72,-0.34,-3.8,3.88
29.510388374328613,0.71,-0.15,-3.73,3.79
29.51614737510681,0.44,-0.19,-3.68,3.71
29.53886842727661,0.21,-0.25,-3.5,3.51
29.54018235206604,0.04,-0.33,-3.37,3.38
29.54618740081787,-0.18,-0.51,-3.27,3.31
29.556309461593628,-0.46,-0.71,-3.23,3.33
29.56684136390686,-0.7,-0.96,-3.07,3.29
29.57689142227173,-0.69,-1.0,-2.2,2.51
29.58675742149353,-0.65,-0.72,-1.13,1.48
29.59700846672058,-0.54,-0.51,-0.33,0.81
29.61078953742981,-0.23,-0.56,0.25,0.65
29.616954565048218,0.02,-0.79,0.47,0.91
29.638511419296265,0.08,-1.19,0.34,1.24
29.639739274978638,0.08,-1.63,0.09,1.63
29.646970510482788,-0.36,-2.04,-0.14,2.07
29.656978368759155,-0.75,-2.3,-0.03,2.41
29.667460441589355,-0.58,-2.2,0.29,2.29
29.677650451660156,-0.15,-1.64,0.66,1.77
29.688425302505493,0.02,-0.91,0.76,1.18
29.697534322738647,0.18,-0.25,0.76,0.82
29.711836576461792,0.37,0.45,0.78,0.97
29.717806577682495,0.16,0.8,0.82,1.15
29.73991346359253,-0.25,0.61,1.06,1.24
29.74116349220276,-0.58,0.13,1.51,1.62
29.747592449188232,-0.55,-0.11,2.36,2.42
29.75781536102295,-0.14,0.07,3.27,3.27
29.76781439781189,0.21,0.33,3.75,3.77
29.778285264968872,0.37,0.49,3.99,4.03
29.78838038444519,0.32,0.74,4.39,4.46
29.79917335510254,0.38,0.98,4.66,4.77
29.812106370925903,0.55,0.99,4.62,4.75
29.81842541694641,0.7,0.92,4.34,4.49
29.83849024772644,0.8,0.86,3.83,4.0
29.839722394943237,0.88,0.77,3.23,3.43
29.84838032722473,1.11,0.79,2.82,3.13
29.85857129096985,1.35,0.89,2.56,3.02
29.868622541427612,1.47,0.99,2.37,2.95
29.879274368286133,1.36,0.98,2.2,2.76
29.88902449607849,1.28,0.89,2.03,2.55
29.898948431015015,1.24,0.73,1.78,2.28
29.90908932685852,1.15,0.55,1.49,1.96
29.91943049430847,1.01,0.38,1.26,1.65
29.93915057182312,0.85,0.19,1.09,1.39
29.940381288528442,0.79,-0.11,0.72,1.07
29.94901943206787,0.93,-0.46,0.06,1.03
29.959479570388794,1.12,-0.7,-0.68,1.48
29.969810247421265,1.24,-0.85,-1.32,2.0
29.97974443435669,1.38,-0.94,-2.06,2.65
29.989875555038452,1.35,-0.93,-3.01,3.42
29.99985146522522,1.13,-0.9,-3.96,4.21
30.009929418563843,0.76,-0.82,-4.63,4.76
30.03826141357422,0.19,-0.79,-5.0,5.06
30.039507389068604,-0.41,-0.94,-5.17,5.27
30.040711402893066,-0.57,-1.17,-4.85,5.02
30.04985547065735,-0.37,-0.8,-4.7,4.78
30.059995412826538,-0.45,-0.39,-4.52,4.55
30.070318460464478,-0.54,-0.11,-4.33,4.36
30.080127477645874,-0.69,-0.09,-4.19,4.24
30.090336561203003,-0.94,-0.38,-3.76,3.89
30.100470304489136,-1.88,-0.39,-2.86,3.44
30.11068344116211,-2.23,-0.4,-2.1,3.08
30.138407468795776,-2.08,-0.43,-1.68,2.7
30.139674425125122,-2.72,-0.39,-0.89,2.88
30.140881299972534,-1.83,-1.29,-0.6,2.31
30.15058135986328,-0.4,-1.91,-1.56,2.49
30.16075348854065,0.28,-1.89,-1.49,2.42
30.17069935798645,0.31,-1.72,-1.09,2.05
30.18126344680786,0.55,-1.61,-0.46,1.76
30.191381454467773,1.45,-1.38,0.31,2.02
30.201268434524536,1.69,-0.89,1.21,2.26
30.211419343948364,1.52,-0.25,1.87,2.42
30.23954939842224,1.56,0.55,2.2,2.75
30.24091339111328,1.77,1.01,2.56,3.27
30.242114305496216,2.27,1.06,2.8,3.75
30.251330375671387,2.87,0.48,2.69,3.96
30.261449575424194,2.14,-0.79,2.76,3.58
30.272002458572388,0.16,-1.17,3.15,3.36
30.28209948539734,-1.74,-1.21,3.23,3.86
30.292129278182983,-0.46,-1.48,3.13,3.49
30.30669140815735,1.2,-0.98,3.02,3.39
30.312130451202393,2.41,0.32,3.29,4.09
30.337437391281128,2.95,1.55,3.93,5.15
30.339266538619995,2.61,2.09,4.32,5.46
30.342023372650146,2.21,1.58,4.02,4.85
30.352001428604126,1.45,0.43,3.59,3.89
30.362162351608276,-0.52,-0.84,3.08,3.23
